PID,trial_no,delay,choice,age,gender,rt,outcome
1,1,1,1,18,female,2.693399161,0
1,2,1,1,18,female,0.836652444,1
1,3,2,0,18,female,2.479721799,0
1,4,10,0,18,female,2.55350237,0
1,5,40,1,18,female,1.395123593,1
1,6,80,0,18,female,7.738387151,1
1,7,10,1,18,female,3.901391771,1
1,8,2,1,18,female,1.949376714,1
1,9,2,1,18,female,1.401149823,1
1,10,20,0,18,female,2.189422779,1
1,11,80,0,18,female,1.591649674,1
1,12,40,0,18,female,1.952870859,0
1,13,5,1,18,female,1.285290331,0
1,14,2,1,18,female,1.570754841,1
1,15,1,1,18,female,1.165272581,1
1,16,1,1,18,female,1.365159682,0
1,17,40,0,18,female,1.404616497,0
1,18,80,0,18,female,1.307069945,0
1,19,80,0,18,female,0.880576934,0
1,20,1,1,18,female,1.574783899,1
1,21,40,0,18,female,1.262968559,0
1,22,80,0,18,female,1.305115639,0
1,23,1,1,18,female,2.668956149,1
1,24,40,0,18,female,1.831194333,1
1,25,5,1,18,female,1.111064288,0
1,26,5,1,18,female,1.040807079,1
1,27,2,1,18,female,0.916733405,1
1,28,5,1,18,female,2.325988737,0
1,29,1,1,18,female,1.641393613,0
1,30,5,1,18,female,0.949111974,1
1,31,10,1,18,female,1.104707511,1
1,32,40,0,18,female,1.766939809,0
1,33,20,0,18,female,1.501474785,1
1,34,1,1,18,female,1.225371564,0
1,35,10,1,18,female,1.334954878,1
1,36,2,1,18,female,1.150971493,1
1,37,5,1,18,female,0.859002893,1
1,38,80,0,18,female,1.143244226,0
1,39,20,0,18,female,3.026822049,1
1,40,20,0,18,female,1.358824337,0
1,41,40,0,18,female,0.778958156,1
1,42,20,0,18,female,0.957475281,1
1,43,10,1,18,female,1.343092688,0
1,44,20,0,18,female,0.885204298,0
1,45,10,1,18,female,0.787338971,0
1,46,5,1,18,female,1.397289812,0
1,47,2,1,18,female,0.887414892,0
1,48,20,1,18,female,2.100818822,0
1,49,20,1,18,female,3.2387764,0
1,50,80,0,18,female,1.26280736,1
1,51,10,1,18,female,1.191502361,0
1,52,5,1,18,female,0.819339599,1
1,53,20,0,18,female,1.99795785,0
1,54,40,0,18,female,0.935014648,1
1,55,1,1,18,female,1.370931435,0
1,56,5,1,18,female,0.962798153,0
1,57,80,0,18,female,0.783508544,0
1,58,80,0,18,female,0.944956735,1
1,59,2,1,18,female,1.350948551,0
1,60,80,0,18,female,1.197298264,1
1,61,10,1,18,female,1.310891316,1
1,62,20,0,18,female,2.225153614,1
1,63,10,1,18,female,0.939363688,0
1,64,40,0,18,female,1.008894899,0
1,65,1,1,18,female,1.323396278,1
1,66,10,1,18,female,0.971153611,1
1,67,2,1,18,female,1.152531859,0
1,68,40,0,18,female,1.285590691,1
1,69,5,1,18,female,1.037148718,1
1,70,2,1,18,female,1.261033874,0
2,1,80,0,18,female,11.60728473,1
2,2,5,0,18,female,2.322687488,1
2,3,5,0,18,female,4.852475862,1
2,4,40,1,18,female,4.317575622,1
2,5,2,0,18,female,3.360824829,1
2,6,1,0,18,female,6.47646939,1
2,7,5,0,18,female,3.826897517,0
2,8,1,0,18,female,2.463369442,0
2,9,1,0,18,female,2.566887887,0
2,10,1,1,18,female,0.947146801,1
2,11,40,1,18,female,2.097023411,1
2,12,1,1,18,female,1.957440264,1
2,13,80,1,18,female,1.794593208,0
2,14,40,1,18,female,2.399106465,0
2,15,1,0,18,female,1.942585244,0
2,16,5,0,18,female,1.747003715,1
2,17,20,0,18,female,7.125498802,1
2,18,1,1,18,female,6.103414904,1
2,19,40,0,18,female,5.926928458,0
2,20,2,1,18,female,1.551205442,1
2,21,5,0,18,female,1.67502132,1
2,22,5,0,18,female,1.778394867,0
2,23,80,1,18,female,1.663430721,0
2,24,80,0,18,female,2.59456453,1
2,25,20,1,18,female,4.206948744,0
2,26,2,1,18,female,1.866588885,1
2,27,1,1,18,female,1.412671292,0
2,28,20,1,18,female,1.84309948,1
2,29,10,1,18,female,2.030989967,1
2,30,20,1,18,female,2.496988093,0
2,31,10,1,18,female,1.81072725,0
2,32,80,0,18,female,1.207260878,1
2,33,2,1,18,female,1.67097264,0
2,34,10,1,18,female,0.905010286,0
2,35,10,1,18,female,1.518786121,1
2,36,40,0,18,female,2.963568525,0
2,37,2,1,18,female,1.560940144,0
2,38,5,1,18,female,1.433455943,0
2,39,20,1,18,female,2.497235022,1
2,40,20,1,18,female,1.932659157,1
2,41,80,0,18,female,1.187418363,0
2,42,20,1,18,female,1.266651975,0
2,43,2,1,18,female,1.258769246,1
2,44,10,1,18,female,1.380936008,1
2,45,20,1,18,female,1.87748156,1
2,46,5,1,18,female,2.136725043,0
2,47,5,1,18,female,1.404859502,1
2,48,2,1,18,female,1.452956741,1
2,49,40,0,18,female,1.611108512,1
2,50,80,0,18,female,2.189318936,0
2,51,5,1,18,female,1.42082812,0
2,52,20,1,18,female,0.90655737,0
2,53,80,0,18,female,2.025380319,1
2,54,1,1,18,female,1.19116155,0
2,55,20,1,18,female,1.336629049,0
2,56,10,1,18,female,1.611395288,1
2,57,10,1,18,female,1.276612174,0
2,58,1,1,18,female,1.417529587,1
2,59,10,1,18,female,1.331265122,0
2,60,80,0,18,female,1.777542386,1
2,61,2,1,18,female,3.253230838,0
2,62,40,0,18,female,1.301171104,0
2,63,40,0,18,female,1.180981591,1
2,64,10,1,18,female,1.333155733,1
2,65,10,1,18,female,0.843136006,0
2,66,40,0,18,female,1.228699982,1
2,67,2,1,18,female,1.18282994,0
2,68,80,0,18,female,1.29124713,0
2,69,2,1,18,female,1.384749833,0
2,70,40,0,18,female,1.345512779,0
3,1,1,1,20,female,5.267736896,1
3,2,20,0,20,female,5.147962755,0
3,3,5,1,20,female,2.097924795,1
3,4,1,0,20,female,1.809591313,0
3,5,20,1,20,female,3.323112822,0
3,6,20,1,20,female,5.217447177,1
3,7,40,1,20,female,6.42298649,0
3,8,20,1,20,female,2.704682456,1
3,9,2,1,20,female,1.981476959,1
3,10,5,1,20,female,1.82912109,1
3,11,5,1,20,female,3.237573147,0
3,12,10,0,20,female,1.667340541,1
3,13,80,1,20,female,8.245008505,1
3,14,2,0,20,female,3.729491636,0
3,15,2,0,20,female,2.229463109,1
3,16,5,1,20,female,3.381313346,1
3,17,1,0,20,female,2.281477412,1
3,18,2,0,20,female,2.43856479,0
3,19,40,1,20,female,1.651393356,0
3,20,10,1,20,female,6.898821047,0
3,21,10,0,20,female,1.59713862,0
3,22,1,0,20,female,1.572518969,1
3,23,5,0,20,female,1.478966458,1
3,24,5,0,20,female,1.690813645,1
3,25,80,1,20,female,1.575300399,1
3,26,5,1,20,female,3.86277657,0
3,27,80,1,20,female,1.979501046,1
3,28,80,1,20,female,6.56152396,1
3,29,5,0,20,female,2.457137639,0
3,30,10,1,20,female,1.493232227,1
3,31,40,1,20,female,1.97950273,0
3,32,20,0,20,female,1.766611374,1
3,33,40,1,20,female,2.517072405,1
3,34,40,1,20,female,6.482557201,0
3,35,10,1,20,female,3.507309026,1
3,36,20,1,20,female,1.89518774,1
3,37,1,1,20,female,1.711010555,0
3,38,20,1,20,female,1.617501513,0
3,39,80,1,20,female,1.427468051,0
3,40,80,1,20,female,1.459311706,1
3,41,20,1,20,female,2.68714351,1
3,42,5,0,20,female,1.59730732,0
3,43,20,0,20,female,3.403200727,0
3,44,2,0,20,female,1.375304926,1
3,45,20,1,20,female,9.069079614,0
3,46,80,1,20,female,1.562669557,0
3,47,1,0,20,female,1.689147625,0
3,48,40,1,20,female,1.760830263,0
3,49,5,0,20,female,1.003294307,0
3,50,80,0,20,female,1.785435379,0
3,51,10,0,20,female,2.889406026,0
3,52,80,1,20,female,1.427302022,0
3,53,1,0,20,female,1.85077248,0
3,54,10,1,20,female,1.347796727,0
3,55,1,1,20,female,2.524744731,1
3,56,1,1,20,female,1.041106534,1
3,57,1,1,20,female,0.739501341,0
3,58,2,0,20,female,0.777192821,0
3,59,40,1,20,female,1.136981331,1
3,60,10,1,20,female,3.245617075,1
3,61,2,0,20,female,1.636822396,1
3,62,2,1,20,female,1.953234008,0
3,63,40,1,20,female,1.803410527,1
3,64,10,1,20,female,2.033321309,1
3,65,40,1,20,female,5.501069374,1
3,66,80,1,20,female,2.296746295,0
3,67,2,0,20,female,2.56561309,1
3,68,40,0,20,female,2.2870611,1
3,69,10,1,20,female,1.941627713,0
3,70,2,0,20,female,1.678563159,0
4,1,10,0,18,female,3.610895694,0
4,2,2,1,18,female,1.133025325,0
4,3,5,0,18,female,2.257941519,1
4,4,40,0,18,female,42.64716899,0
4,5,1,0,18,female,1.595474064,0
4,6,1,0,18,female,0.604974817,1
4,7,2,0,18,female,2.94880467,1
4,8,1,1,18,female,0.887235883,0
4,9,10,0,18,female,0.602944138,1
4,10,10,0,18,female,3.213473964,1
4,11,40,1,18,female,1.501307852,1
4,12,40,1,18,female,0.800720262,1
4,13,2,1,18,female,2.732989101,0
4,14,10,1,18,female,0.850661925,0
4,15,10,1,18,female,13.58944361,1
4,16,1,1,18,female,0.721357147,1
4,17,20,0,18,female,0.46944065,1
4,18,80,1,18,female,1.036538639,0
4,19,5,0,18,female,1.638588335,1
4,20,20,1,18,female,2.50348373,0
4,21,80,1,18,female,1.06524496,1
4,22,20,1,18,female,1.389557414,1
4,23,1,0,18,female,1.12453946,0
4,24,20,1,18,female,2.505410566,0
4,25,20,1,18,female,1.367109158,0
4,26,10,1,18,female,0.679185917,0
4,27,40,1,18,female,2.586499773,0
4,28,10,0,18,female,2.718988373,0
4,29,20,1,18,female,2.052901499,1
4,30,40,1,18,female,1.722651867,0
4,31,5,1,18,female,1.285497112,1
4,32,40,1,18,female,1.150691357,1
4,33,1,0,18,female,2.116845701,1
4,34,80,1,18,female,1.376803711,0
4,35,5,0,18,female,1.300999945,0
4,36,20,1,18,female,1.244822553,1
4,37,80,1,18,female,1.461620407,1
4,38,80,1,18,female,1.917505588,0
4,39,2,0,18,female,1.350907798,0
4,40,1,0,18,female,1.026981738,1
4,41,20,1,18,female,1.187491717,1
4,42,2,0,18,female,5.113439098,1
4,43,2,0,18,female,1.576775335,1
4,44,2,0,18,female,2.532665798,0
4,45,5,0,18,female,1.285359158,1
4,46,10,1,18,female,1.281183994,1
4,47,5,0,18,female,2.858893013,0
4,48,80,1,18,female,1.375829274,0
4,49,40,1,18,female,0.912737251,1
4,50,1,0,18,female,1.37956733,1
4,51,2,1,18,female,12.40143841,1
4,52,80,1,18,female,0.951250119,1
4,53,1,0,18,female,1.791461609,0
4,54,40,1,18,female,1.039487606,0
4,55,40,1,18,female,1.677435072,1
4,56,2,1,18,female,1.674894836,1
4,57,40,1,18,female,1.394657204,0
4,58,2,0,18,female,1.644808969,0
4,59,20,1,18,female,0.689179925,0
4,60,80,1,18,female,2.508686458,0
4,61,5,0,18,female,2.146859119,0
4,62,80,1,18,female,1.679332022,1
4,63,5,0,18,female,1.845218305,0
4,64,20,1,18,female,1.44103801,0
4,65,5,1,18,female,2.585435078,1
4,66,5,1,18,female,1.644929416,0
4,67,80,1,18,female,1.729545067,1
4,68,10,1,18,female,1.997339319,1
4,69,10,1,18,female,1.263221526,0
4,70,1,0,18,female,2.402902781,0
5,1,2,1,19,male,4.098307265,1
5,2,1,0,19,male,2.588296805,1
5,3,80,0,19,male,1.684132056,0
5,4,20,1,19,male,1.601891819,1
5,5,10,0,19,male,2.167496759,0
5,6,80,0,19,male,2.829277459,0
5,7,5,1,19,male,2.034727721,0
5,8,1,0,19,male,1.394836515,0
5,9,40,1,19,male,1.792928697,0
5,10,1,0,19,male,1.580732246,0
5,11,5,0,19,male,0.858797924,1
5,12,5,0,19,male,1.746726598,0
5,13,80,1,19,male,1.253618741,0
5,14,1,0,19,male,1.256951083,0
5,15,2,0,19,male,1.617307713,0
5,16,40,0,19,male,1.876809899,1
5,17,10,1,19,male,2.997017223,1
5,18,80,1,19,male,2.467034445,1
5,19,40,0,19,male,1.574846688,1
5,20,1,0,19,male,1.697624736,1
5,21,2,0,19,male,0.939453344,1
5,22,1,0,19,male,2.029191728,0
5,23,2,0,19,male,0.994673505,1
5,24,10,0,19,male,1.584726589,1
5,25,20,0,19,male,1.707316875,0
5,26,5,1,19,male,1.303091903,1
5,27,10,0,19,male,2.467517739,1
5,28,2,1,19,male,1.438431363,0
5,29,2,0,19,male,0.933399644,0
5,30,5,1,19,male,0.861079457,0
5,31,1,0,19,male,1.722561004,1
5,32,40,0,19,male,2.767044558,1
5,33,20,1,19,male,1.855296836,1
5,34,2,0,19,male,0.807222238,0
5,35,40,1,19,male,3.387498359,0
5,36,10,0,19,male,1.434990348,1
5,37,80,0,19,male,0.945563191,1
5,38,10,0,19,male,1.368718728,0
5,39,5,1,19,male,1.244600377,1
5,40,80,0,19,male,2.948827009,1
5,41,1,0,19,male,1.430913594,1
5,42,40,1,19,male,1.737075212,0
5,43,20,1,19,male,2.779288704,0
5,44,20,0,19,male,1.332989403,0
5,45,5,0,19,male,1.447127028,0
5,46,40,0,19,male,2.345257095,0
5,47,1,0,19,male,1.273348356,1
5,48,80,0,19,male,1.939503152,1
5,49,5,0,19,male,1.337318821,0
5,50,20,1,19,male,2.107603651,1
5,51,2,0,19,male,2.23302125,0
5,52,40,1,19,male,4.506891238,1
5,53,10,0,19,male,1.714652616,0
5,54,10,1,19,male,2.019585925,1
5,55,20,0,19,male,1.518828986,0
5,56,1,0,19,male,1.750879422,0
5,57,5,0,19,male,1.803450373,1
5,58,2,0,19,male,0.99082889,1
5,59,10,0,19,male,1.464650578,0
5,60,20,1,19,male,2.603298231,0
5,61,80,1,19,male,2.743436518,1
5,62,20,0,19,male,4.229663853,1
5,63,10,1,19,male,1.814757213,0
5,64,80,0,19,male,6.137183886,0
5,65,2,1,19,male,2.570911814,1
5,66,80,0,19,male,3.556363795,0
5,67,5,1,19,male,1.336833112,1
5,68,40,1,19,male,2.531018796,1
5,69,20,1,19,male,3.05094689,1
5,70,40,0,19,male,1.118987166,0
6,1,40,1,21,female,5.783641669,0
6,2,20,0,21,female,4.363870697,1
6,3,1,1,21,female,1.864358368,1
6,4,40,1,21,female,2.863169604,1
6,5,80,1,21,female,4.792795874,0
6,6,40,1,21,female,1.690916885,1
6,7,80,0,21,female,5.126919402,0
6,8,1,0,21,female,3.307418907,1
6,9,2,0,21,female,2.54398411,0
6,10,5,0,21,female,4.161080211,1
6,11,40,1,21,female,2.055596292,0
6,12,40,1,21,female,1.447178347,0
6,13,2,0,21,female,1.466724122,1
6,14,80,1,21,female,1.375238213,0
6,15,5,0,21,female,1.280745075,1
6,16,1,0,21,female,1.417254282,1
6,17,5,0,21,female,0.871046296,0
6,18,5,0,21,female,1.496740861,1
6,19,10,0,21,female,1.47273556,1
6,20,1,0,21,female,1.197388523,0
6,21,20,0,21,female,4.108944255,1
6,22,10,0,21,female,5.738836925,0
6,23,20,1,21,female,1.936553883,1
6,24,10,0,21,female,4.115432346,0
6,25,1,0,21,female,1.209283708,1
6,26,2,0,21,female,1.921439859,1
6,27,80,1,21,female,1.775177839,1
6,28,5,0,21,female,1.550700716,1
6,29,80,1,21,female,1.479208557,1
6,30,10,0,21,female,2.549544554,0
6,31,10,0,21,female,1.770762992,1
6,32,1,0,21,female,1.285373949,0
6,33,20,0,21,female,4.189281202,0
6,34,10,0,21,female,0.994954546,1
6,35,2,0,21,female,2.113268844,1
6,36,40,1,21,female,1.925387111,1
6,37,20,1,21,female,1.679534879,1
6,38,5,0,21,female,1.254876331,0
6,39,40,0,21,female,1.886816284,0
6,40,1,1,21,female,3.589412214,0
6,41,1,1,21,female,2.425161764,0
6,42,2,0,21,female,1.571060635,0
6,43,2,0,21,female,1.083161846,1
6,44,80,1,21,female,1.442989297,1
6,45,10,1,21,female,2.493611678,0
6,46,5,1,21,female,2.761205186,0
6,47,80,1,21,female,1.46089109,0
6,48,5,1,21,female,2.179503937,0
6,49,20,1,21,female,2.453324418,0
6,50,2,1,21,female,2.690826626,0
6,51,40,1,21,female,2.73530867,1
6,52,5,0,21,female,2.205158655,1
6,53,20,1,21,female,1.989351236,1
6,54,80,1,21,female,7.526401092,0
6,55,40,1,21,female,2.057092359,0
6,56,20,1,21,female,0.723563212,0
6,57,10,1,21,female,2.503250082,1
6,58,80,1,21,female,2.512352065,1
6,59,10,0,21,female,1.559475773,1
6,60,2,0,21,female,1.127021736,0
6,61,10,1,21,female,0.854830447,0
6,62,40,0,21,female,1.161415589,1
6,63,1,0,21,female,1.200854292,0
6,64,5,0,21,female,0.734962726,0
6,65,2,0,21,female,1.373484349,0
6,66,20,0,21,female,1.685235089,0
6,67,1,1,21,female,1.86694328,1
6,68,2,1,21,female,1.021504913,1
6,69,80,1,21,female,1.364964372,1
6,70,20,1,21,female,1.459516073,0
7,1,10,0,18,female,5.562594089,1
7,2,1,0,18,female,4.988851038,1
7,3,40,1,18,female,2.634389325,0
7,4,20,0,18,female,4.773952247,1
7,5,80,1,18,female,3.746797236,1
7,6,20,0,18,female,1.50896931,1
7,7,80,0,18,female,5.305689494,1
7,8,10,0,18,female,1.347132009,0
7,9,20,0,18,female,1.891446666,1
7,10,10,0,18,female,2.48292669,1
7,11,2,0,18,female,2.319257943,1
7,12,1,0,18,female,2.245400936,0
7,13,5,0,18,female,1.463421967,1
7,14,2,0,18,female,1.428592516,0
7,15,1,0,18,female,1.828714472,0
7,16,80,1,18,female,1.53350228,1
7,17,5,0,18,female,1.802719244,1
7,18,80,1,18,female,1.314545452,0
7,19,10,0,18,female,1.129127883,0
7,20,1,0,18,female,2.589650691,0
7,21,5,0,18,female,1.004737547,1
7,22,1,0,18,female,1.908964481,1
7,23,10,0,18,female,2.106831468,0
7,24,5,0,18,female,1.383383268,1
7,25,20,0,18,female,3.943287998,0
7,26,80,1,18,female,1.270592586,1
7,27,5,0,18,female,1.116671823,0
7,28,40,1,18,female,1.641494135,1
7,29,2,0,18,female,1.506869805,1
7,30,1,0,18,female,1.604790978,1
7,31,40,1,18,female,1.964889206,0
7,32,10,0,18,female,1.689222489,0
7,33,10,0,18,female,1.677535896,0
7,34,2,0,18,female,1.230829976,1
7,35,10,0,18,female,2.038693084,1
7,36,40,1,18,female,1.441366746,1
7,37,40,1,18,female,1.369430236,1
7,38,5,0,18,female,1.562937315,0
7,39,80,1,18,female,1.489041367,1
7,40,5,0,18,female,1.435278331,0
7,41,20,0,18,female,2.805056623,0
7,42,40,1,18,female,1.768925811,0
7,43,80,1,18,female,2.012046421,0
7,44,1,0,18,female,1.550589929,1
7,45,5,0,18,female,1.224991812,0
7,46,10,0,18,female,1.493157967,1
7,47,1,0,18,female,1.039462551,0
7,48,2,0,18,female,0.877275986,1
7,49,20,1,18,female,2.073020827,0
7,50,2,0,18,female,1.469454536,0
7,51,2,0,18,female,1.344555549,0
7,52,40,1,18,female,1.300855952,1
7,53,20,1,18,female,1.720873853,1
7,54,20,1,18,female,1.112973011,0
7,55,80,1,18,female,1.233394663,0
7,56,80,1,18,female,1.147553118,0
7,57,20,0,18,female,2.745438217,1
7,58,40,1,18,female,1.258960028,0
7,59,40,1,18,female,1.70700142,0
7,60,2,0,18,female,1.401052621,0
7,61,10,0,18,female,1.580597008,1
7,62,5,0,18,female,1.665543509,1
7,63,40,1,18,female,1.281042115,1
7,64,20,1,18,female,1.516945016,0
7,65,1,0,18,female,1.609027421,1
7,66,2,0,18,female,1.239483078,0
7,67,1,0,18,female,1.399580099,0
7,68,2,0,18,female,0.822996754,1
7,69,80,1,18,female,1.258803659,0
7,70,5,0,18,female,1.685988556,0
8,1,1,1,18,male,2.821351562,1
8,2,40,0,18,male,1.778064621,1
8,3,2,0,18,male,2.444223945,0
8,4,10,0,18,male,6.810836829,1
8,5,5,0,18,male,1.368936074,1
8,6,80,1,18,male,2.245211965,1
8,7,5,0,18,male,1.139443382,0
8,8,20,0,18,male,1.970953471,1
8,9,2,0,18,male,1.211135076,0
8,10,1,0,18,male,1.104978892,0
8,11,20,1,18,male,1.762989237,1
8,12,1,1,18,male,1.322745748,0
8,13,20,1,18,male,2.384869675,1
8,14,5,0,18,male,1.422658055,0
8,15,5,0,18,male,1.462784418,0
8,16,10,0,18,male,1.472595493,0
8,17,10,0,18,male,1.672878345,0
8,18,80,1,18,male,1.388853453,0
8,19,80,1,18,male,3.156992289,0
8,20,20,1,18,male,1.390857265,0
8,21,5,0,18,male,2.487366592,1
8,22,80,1,18,male,4.538804927,1
8,23,10,0,18,male,2.179337607,1
8,24,40,0,18,male,3.163279334,1
8,25,2,0,18,male,1.226730281,0
8,26,80,0,18,male,2.275198517,0
8,27,40,0,18,male,3.339523076,1
8,28,10,0,18,male,1.786967369,0
8,29,10,0,18,male,0.894875305,1
8,30,5,1,18,male,1.572568777,1
8,31,20,1,18,male,1.28278149,0
8,32,80,0,18,male,1.774645039,0
8,33,40,1,18,male,2.661546751,0
8,34,80,1,18,male,3.089605562,0
8,35,1,0,18,male,2.017147118,1
8,36,1,1,18,male,0.819539135,0
8,37,40,1,18,male,3.641393311,0
8,38,40,0,18,male,2.778936723,0
8,39,2,0,18,male,3.897556212,1
8,40,1,1,18,male,0.930896841,0
8,41,2,0,18,male,1.372561834,1
8,42,40,0,18,male,1.507380569,0
8,43,1,0,18,male,2.075235345,1
8,44,1,0,18,male,2.457041343,1
8,45,1,0,18,male,0.891431271,0
8,46,20,1,18,male,1.023125954,1
8,47,2,0,18,male,1.511020215,0
8,48,80,1,18,male,1.037093777,1
8,49,20,0,18,male,1.259351855,0
8,50,5,0,18,male,5.114213462,1
8,51,40,0,18,male,1.179433903,1
8,52,80,1,18,male,2.321615849,1
8,53,10,0,18,male,3.081662157,0
8,54,2,1,18,male,1.237463267,1
8,55,10,0,18,male,1.727211009,1
8,56,2,1,18,male,1.35491482,1
8,57,20,0,18,male,0.981048605,1
8,58,20,0,18,male,0.987896224,0
8,59,5,0,18,male,3.659342195,1
8,60,10,0,18,male,1.677153125,1
8,61,80,1,18,male,1.775158519,1
8,62,5,0,18,male,1.555010211,0
8,63,40,1,18,male,1.738875263,1
8,64,2,0,18,male,1.39802455,0
8,65,5,0,18,male,0.603062772,0
8,66,2,0,18,male,1.008903653,1
8,67,40,0,18,male,2.921079729,0
8,68,10,0,18,male,0.865551962,0
8,69,20,1,18,male,1.677677346,0
8,70,1,0,18,male,2.104658306,1
10,1,80,1,19,male,4.856504618,1
10,2,80,0,19,male,4.172822348,1
10,3,5,1,19,male,3.587978634,1
10,4,5,1,19,male,3.813559394,1
10,5,80,1,19,male,2.07898457,1
10,6,10,1,19,male,1.518587188,0
10,7,40,1,19,male,1.604529256,1
10,8,1,1,19,male,1.992744254,1
10,9,40,0,19,male,1.912552808,0
10,10,1,1,19,male,1.346997979,1
10,11,10,1,19,male,1.374777257,1
10,12,1,0,19,male,1.132747907,1
10,13,1,1,19,male,1.405239858,0
10,14,20,1,19,male,0.929284855,1
10,15,40,1,19,male,1.732531466,1
10,16,10,1,19,male,1.292966884,0
10,17,5,1,19,male,1.421253454,0
10,18,2,0,19,male,1.907489846,0
10,19,40,0,19,male,1.058532882,0
10,20,20,1,19,male,23.81031188,0
10,21,2,1,19,male,1.425334736,1
10,22,20,1,19,male,1.892887793,0
10,23,1,1,19,male,1.836990538,1
10,24,5,1,19,male,1.471078898,1
10,25,80,1,19,male,2.29864234,1
10,26,1,1,19,male,1.494887983,0
10,27,1,0,19,male,2.129320476,1
10,28,20,1,19,male,1.675409826,0
10,29,20,1,19,male,1.489451608,0
10,30,10,0,19,male,1.368766122,1
10,31,80,1,19,male,1.938715876,1
10,32,20,1,19,male,2.232866995,0
10,33,20,1,19,male,1.186984274,1
10,34,2,1,19,male,1.67878443,0
10,35,1,0,19,male,1.098902854,0
10,36,40,1,19,male,1.37893129,1
10,37,5,1,19,male,1.221211796,1
10,38,10,1,19,male,2.756795167,0
10,39,20,1,19,male,2.104993079,1
10,40,20,1,19,male,1.71106942,1
10,41,80,1,19,male,1.915215603,0
10,42,40,1,19,male,1.459382344,0
10,43,80,1,19,male,2.126874424,0
10,44,2,0,19,male,1.438607655,0
10,45,10,0,19,male,1.345129706,1
10,46,2,1,19,male,1.484677837,1
10,47,80,1,19,male,1.786775682,0
10,48,40,0,19,male,2.074951889,0
10,49,5,0,19,male,1.785451379,0
10,50,80,0,19,male,2.170726767,0
10,51,80,0,19,male,1.779270592,0
10,52,5,1,19,male,1.961449096,0
10,53,2,0,19,male,1.548954398,1
10,54,40,1,19,male,1.583074153,0
10,55,1,1,19,male,1.434578295,0
10,56,5,1,19,male,1.597315772,0
10,57,10,1,19,male,1.679470279,1
10,58,2,1,19,male,1.329004116,0
10,59,5,1,19,male,0.939697556,0
10,60,2,1,19,male,1.364675784,0
10,61,20,0,19,male,1.841470892,1
10,62,2,1,19,male,2.178544896,1
10,63,10,1,19,male,1.069026183,0
10,64,2,1,19,male,1.28534678,1
10,65,10,0,19,male,2.041144872,1
10,66,40,0,19,male,1.339378178,1
10,67,1,1,19,male,1.6032448,0
10,68,5,0,19,male,1.4386795,1
10,69,40,0,19,male,1.899571193,1
10,70,10,1,19,male,1.324683452,0
11,1,2,1,20,male,5.736026516,1
11,2,2,1,20,male,1.717171418,0
11,3,80,1,20,male,0.478484069,0
11,4,1,1,20,male,1.431261349,1
11,5,5,0,20,male,1.081359984,1
11,6,5,1,20,male,2.381968101,0
11,7,5,1,20,male,1.941454138,1
11,8,40,0,20,male,2.21730892,0
11,9,80,1,20,male,2.715183303,1
11,10,80,1,20,male,4.299168499,1
11,11,40,1,20,male,1.242920773,1
11,12,40,1,20,male,2.284820319,1
11,13,80,0,20,male,2.636651236,1
11,14,5,1,20,male,1.068772008,0
11,15,40,0,20,male,0.9432723,1
11,16,5,1,20,male,5.253374227,1
11,17,40,1,20,male,1.103381396,0
11,18,10,1,20,male,1.240913036,1
11,19,2,1,20,male,1.627483446,0
11,20,20,1,20,male,1.208927803,1
11,21,40,1,20,male,1.379381076,1
11,22,10,1,20,male,2.620572436,0
11,23,1,1,20,male,0.926787183,1
11,24,5,1,20,male,2.975279569,1
11,25,80,0,20,male,1.698783011,0
11,26,20,1,20,male,1.744941641,0
11,27,2,1,20,male,1.361391741,1
11,28,1,1,20,male,1.622543647,1
11,29,40,1,20,male,1.039291692,0
11,30,80,1,20,male,1.47477922,1
11,31,20,1,20,male,1.841243281,0
11,32,1,0,20,male,2.437794719,1
11,33,40,1,20,male,1.835466095,0
11,34,5,1,20,male,1.145581605,0
11,35,10,1,20,male,0.865008294,1
11,36,10,1,20,male,0.946549702,0
11,37,40,1,20,male,1.006800828,1
11,38,2,1,20,male,0.995301696,1
11,39,1,0,20,male,1.628763677,0
11,40,20,0,20,male,0.911380044,1
11,41,2,1,20,male,0.956805129,1
11,42,10,1,20,male,0.724909854,0
11,43,20,1,20,male,1.192811269,1
11,44,2,1,20,male,0.915035387,0
11,45,1,1,20,male,0.672692996,0
11,46,10,1,20,male,0.557379588,1
11,47,1,0,20,male,0.863322048,0
11,48,40,1,20,male,1.445506289,0
11,49,5,1,20,male,0.842944017,1
11,50,10,1,20,male,1.125428467,1
11,51,10,0,20,male,1.735025515,0
11,52,20,1,20,male,0.887191206,0
11,53,10,1,20,male,1.387335047,0
11,54,20,1,20,male,0.66283634,1
11,55,20,1,20,male,1.618712012,1
11,56,80,1,20,male,3.435222788,0
11,57,80,1,20,male,1.413391856,1
11,58,1,1,20,male,1.344527173,0
11,59,20,1,20,male,0.616726009,0
11,60,2,0,20,male,0.602974627,0
11,61,2,0,20,male,0.649465011,1
11,62,10,1,20,male,1.132878013,1
11,63,1,0,20,male,1.52482533,1
11,64,80,1,20,male,1.256888596,0
11,65,1,1,20,male,0.875401676,0
11,66,5,1,20,male,0.882856052,0
11,67,2,1,20,male,0.897265209,0
11,68,80,1,20,male,0.805358191,0
11,69,20,1,20,male,0.999511574,0
11,70,5,1,20,male,1.406638422,0
12,1,40,0,18,female,3.044261377,1
12,2,20,1,18,female,1.614735177,1
12,3,20,1,18,female,2.302260553,1
12,4,10,0,18,female,2.087022762,1
12,5,10,1,18,female,2.867317297,0
12,6,80,0,18,female,1.36122209,1
12,7,2,1,18,female,0.995561908,0
12,8,10,1,18,female,1.10087497,1
12,9,5,0,18,female,1.330215218,1
12,10,40,0,18,female,2.058360514,1
12,11,10,0,18,female,1.795443575,0
12,12,10,1,18,female,1.64142863,1
12,13,10,1,18,female,1.427383829,0
12,14,20,1,18,female,0.740961184,1
12,15,80,0,18,female,0.752739243,0
12,16,40,1,18,female,1.404623742,1
12,17,80,1,18,female,1.535165281,1
12,18,80,0,18,female,3.001735752,1
12,19,5,1,18,female,1.28054886,0
12,20,1,0,18,female,1.021017996,0
12,21,20,0,18,female,1.620796122,0
12,22,40,0,18,female,0.918505684,1
12,23,1,1,18,female,1.342988241,0
12,24,1,1,18,female,1.006610952,1
12,25,40,1,18,female,1.298632378,0
12,26,5,0,18,female,2.018502514,1
12,27,1,1,18,female,1.512976634,1
12,28,40,1,18,female,1.073067315,0
12,29,5,1,18,female,0.763285673,0
12,30,80,0,18,female,0.671320092,0
12,31,20,1,18,female,0.983219353,0
12,32,2,1,18,female,1.081300214,0
12,33,2,1,18,female,1.673452803,1
12,34,2,1,18,female,4.747357808,1
12,35,20,0,18,female,1.271370505,1
12,36,80,1,18,female,0.72346118,0
12,37,2,1,18,female,2.166703993,0
12,38,80,0,18,female,1.01742031,0
12,39,20,1,18,female,1.711570825,1
12,40,1,1,18,female,2.955443092,0
12,41,2,1,18,female,1.058777095,1
12,42,5,1,18,female,1.289243318,0
12,43,2,1,18,female,0.950691659,1
12,44,1,1,18,female,1.055519314,1
12,45,1,1,18,female,1.588753486,1
12,46,40,1,18,female,0.792578899,1
12,47,80,1,18,female,1.633145621,1
12,48,10,0,18,female,3.025814408,1
12,49,5,1,18,female,1.192654901,1
12,50,1,1,18,female,0.819156364,0
12,51,80,1,18,female,2.371099878,1
12,52,5,1,18,female,1.427252516,1
12,53,2,1,18,female,2.145499195,1
12,54,1,1,18,female,0.667189003,0
12,55,40,0,18,female,1.601310719,0
12,56,10,1,18,female,1.61518436,0
12,57,5,1,18,female,2.603100808,0
12,58,20,1,18,female,0.93686813,0
12,59,2,1,18,female,0.833240408,0
12,60,5,1,18,female,0.640667011,0
12,61,5,0,18,female,0.739493493,1
12,62,40,0,18,female,2.764752157,0
12,63,10,1,18,female,1.162859131,1
12,64,2,1,18,female,0.663366725,0
12,65,80,1,18,female,0.583528769,0
12,66,1,1,18,female,1.932709871,1
12,67,20,1,18,female,2.140805117,0
12,68,10,1,18,female,2.634968915,0
12,69,20,1,18,female,1.047579833,0
12,70,40,0,18,female,2.331630686,0
13,1,2,1,21,male,6.24280244,0
13,2,5,0,21,male,4.509568522,0
13,3,80,1,21,male,2.370112462,0
13,4,10,1,21,male,1.740894773,0
13,5,10,0,21,male,0.858553711,0
13,6,40,1,21,male,1.173127539,0
13,7,5,0,21,male,1.504295156,1
13,8,5,1,21,male,1.674479463,1
13,9,80,1,21,male,1.44300741,0
13,10,40,1,21,male,1.121203495,0
13,11,20,0,21,male,1.951327398,0
13,12,80,1,21,male,1.221014072,0
13,13,20,1,21,male,1.122506667,1
13,14,1,0,21,male,2.002625363,1
13,15,20,1,21,male,1.019046181,0
13,16,10,0,21,male,0.98581,1
13,17,40,1,21,male,1.066792949,1
13,18,80,1,21,male,1.320970451,0
13,19,1,0,21,male,1.384735343,0
13,20,1,1,21,male,1.120756425,0
13,21,80,1,21,male,1.330888388,1
13,22,80,0,21,male,1.315399442,1
13,23,80,1,21,male,1.265220206,1
13,24,5,1,21,male,1.137415118,0
13,25,2,0,21,male,1.440838474,1
13,26,10,1,21,male,1.082959291,1
13,27,2,1,21,male,0.692526153,0
13,28,40,0,21,male,1.484976387,1
13,29,40,0,21,male,1.26252481,1
13,30,20,0,21,male,0.829365605,1
13,31,80,0,21,male,0.848793954,1
13,32,5,1,21,male,1.771891381,0
13,33,2,0,21,male,0.969088821,0
13,34,5,0,21,male,0.666856644,0
13,35,5,1,21,male,1.191595036,0
13,36,10,0,21,male,0.460760078,0
13,37,2,0,21,male,0.986980652,1
13,38,20,1,21,male,1.96980546,0
13,39,10,1,21,male,0.660467868,1
13,40,1,1,21,male,1.435510771,1
13,41,1,1,21,male,0.544869796,1
13,42,80,1,21,male,1.711317859,1
13,43,20,0,21,male,1.276399054,1
13,44,2,1,21,male,1.003115902,1
13,45,2,1,21,male,1.351240157,0
13,46,1,1,21,male,0.84914201,1
13,47,1,1,21,male,2.084615652,0
13,48,20,1,21,male,0.787340179,1
13,49,40,0,21,male,1.477179086,0
13,50,5,0,21,male,0.933475112,1
13,51,1,1,21,male,1.19087085,1
13,52,10,0,21,male,0.68488824,0
13,53,10,1,21,male,0.609189223,0
13,54,10,1,21,male,0.770697486,1
13,55,5,1,21,male,2.660752833,1
13,56,2,0,21,male,0.466909471,0
13,57,40,1,21,male,1.049209931,0
13,58,2,0,21,male,0.481307459,1
13,59,40,0,21,male,0.460769436,1
13,60,1,1,21,male,1.028612742,0
13,61,2,0,21,male,0.388602297,1
13,62,40,0,21,male,0.317049463,1
13,63,80,1,21,male,1.329161692,0
13,64,5,1,21,male,0.328612892,1
13,65,40,1,21,male,0.939072082,0
13,66,20,0,21,male,0.220548588,0
13,67,1,0,21,male,0.349289172,0
13,68,10,0,21,male,0.281332213,1
13,69,20,0,21,male,0.387215506,1
13,70,20,0,21,male,0.410322744,0
14,1,40,1,19,male,4.523628718,0
14,2,80,0,19,male,4.158398399,1
14,3,1,1,19,male,7.200010565,0
14,4,80,1,19,male,0.87954001,0
14,5,1,1,19,male,1.366892113,1
14,6,5,1,19,male,2.058631292,0
14,7,20,1,19,male,2.801230422,0
14,8,40,0,19,male,3.711102323,1
14,9,10,1,19,male,2.307278839,1
14,10,1,1,19,male,2.096903267,1
14,11,40,0,19,male,1.040967976,0
14,12,40,0,19,male,2.37284046,1
14,13,40,1,19,male,11.69109529,1
14,14,2,0,19,male,2.264981428,1
14,15,40,0,19,male,1.533155432,0
14,16,20,0,19,male,1.576729753,1
14,17,80,0,19,male,4.394719691,0
14,18,1,0,19,male,4.377611816,1
14,19,80,0,19,male,2.854701247,1
14,20,10,0,19,male,1.674966077,0
14,21,5,0,19,male,1.285325046,0
14,22,10,0,19,male,1.877474616,0
14,23,20,0,19,male,3.328896046,1
14,24,80,0,19,male,3.452582723,1
14,25,80,0,19,male,5.101290645,1
14,26,40,0,19,male,2.195429085,0
14,27,10,0,19,male,2.129022832,1
14,28,5,0,19,male,1.54869328,1
14,29,10,0,19,male,1.37745092,0
14,30,10,0,19,male,3.698832216,0
14,31,10,0,19,male,1.536361592,0
14,32,5,0,19,male,1.957377475,1
14,33,80,0,19,male,1.139269505,0
14,34,80,0,19,male,1.36710312,0
14,35,20,0,19,male,1.718934339,0
14,36,20,0,19,male,1.649827859,1
14,37,40,0,19,male,0.953120807,1
14,38,2,0,19,male,2.247331998,0
14,39,2,0,19,male,1.867026596,0
14,40,1,0,19,male,1.108854902,0
14,41,80,0,19,male,1.990609128,1
14,42,80,0,19,male,2.532986686,0
14,43,10,0,19,male,1.873064599,1
14,44,1,1,19,male,2.777416809,1
14,45,20,0,19,male,1.538524792,1
14,46,10,0,19,male,3.35483422,1
14,47,20,0,19,male,1.227418544,0
14,48,5,0,19,male,3.819045276,1
14,49,2,0,19,male,1.893217133,0
14,50,1,0,19,male,8.102879085,0
14,51,2,0,19,male,1.795530816,1
14,52,40,0,19,male,9.199754881,0
14,53,20,0,19,male,1.592573698,0
14,54,10,0,19,male,4.353688322,1
14,55,5,0,19,male,2.039295315,0
14,56,2,0,19,male,1.772913211,1
14,57,20,0,19,male,2.00936159,0
14,58,5,0,19,male,2.407181184,0
14,59,1,0,19,male,2.073029883,0
14,60,2,0,19,male,1.60149637,0
14,61,5,0,19,male,1.360585446,1
14,62,2,0,19,male,1.243074726,1
14,63,1,0,19,male,2.651063412,0
14,64,40,0,19,male,1.977409865,1
14,65,5,0,19,male,2.8556138,0
14,66,20,0,19,male,3.134770435,1
14,67,2,0,19,male,7.219169948,0
14,68,1,0,19,male,1.398769276,1
14,69,2,0,19,male,1.821218438,1
14,70,5,0,19,male,2.337074609,1
15,1,1,1,19,female,3.397329357,1
15,2,1,0,19,female,0.937220412,0
15,3,1,0,19,female,0.746423822,1
15,4,5,1,19,female,1.102811767,0
15,5,40,0,19,female,1.362689782,0
15,6,40,1,19,female,0.852781354,1
15,7,2,1,19,female,4.750929533,1
15,8,2,0,19,female,1.442534681,1
15,9,80,1,19,female,0.826648474,1
15,10,40,0,19,female,2.28656724,1
15,11,10,1,19,female,1.744754482,1
15,12,80,1,19,female,2.623403674,1
15,13,1,0,19,female,2.626662662,1
15,14,2,0,19,female,2.405394114,0
15,15,20,0,19,female,1.973136896,1
15,16,5,0,19,female,1.64694802,1
15,17,1,1,19,female,1.472786879,1
15,18,2,0,19,female,1.499343886,0
15,19,10,0,19,female,2.22707411,1
15,20,5,0,19,female,1.935360289,1
15,21,80,1,19,female,3.870637263,1
15,22,1,1,19,female,2.031167769,0
15,23,20,0,19,female,3.179426357,0
15,24,2,0,19,female,1.923243834,0
15,25,2,0,19,female,1.33871014,0
15,26,80,1,19,female,1.839475531,0
15,27,80,1,19,female,1.975324548,1
15,28,2,0,19,female,4.255633119,1
15,29,20,0,19,female,2.094687844,0
15,30,1,0,19,female,1.505261442,1
15,31,2,0,19,female,1.809143037,1
15,32,5,0,19,female,1.513266731,0
15,33,80,1,19,female,1.439429043,0
15,34,2,0,19,female,0.991145249,0
15,35,5,1,19,female,1.303217179,0
15,36,40,1,19,female,1.598790709,0
15,37,10,0,19,female,1.957298385,0
15,38,20,1,19,female,1.783102529,0
15,39,80,1,19,female,1.90289931,1
15,40,20,0,19,female,1.431083245,0
15,41,1,0,19,female,5.014718574,0
15,42,20,1,19,female,1.6109129,1
15,43,5,0,19,female,1.581361946,0
15,44,80,1,19,female,1.414646729,0
15,45,20,1,19,female,1.438836473,1
15,46,5,0,19,female,2.105429584,1
15,47,80,1,19,female,1.516477118,0
15,48,2,1,19,female,1.404777091,1
15,49,10,0,19,female,1.4145613,0
15,50,10,0,19,female,0.742772404,1
15,51,40,1,19,female,2.140811155,1
15,52,40,1,19,female,3.780664325,1
15,53,20,1,19,female,1.762836189,1
15,54,1,0,19,female,3.051508369,0
15,55,40,0,19,female,0.643074123,1
15,56,10,0,19,female,1.599297549,1
15,57,10,1,19,female,3.553026624,0
15,58,10,1,19,female,1.282633574,1
15,59,10,1,19,female,2.023307377,0
15,60,5,0,19,female,0.907177712,1
15,61,1,0,19,female,2.415059084,0
15,62,10,0,19,female,1.650842745,0
15,63,20,1,19,female,1.336670103,1
15,64,40,1,19,female,1.561148434,0
15,65,40,1,19,female,1.464951844,0
15,66,20,1,19,female,1.520678543,0
15,67,80,1,19,female,0.844782405,0
15,68,5,1,19,female,1.998962473,0
15,69,40,1,19,female,2.687179131,0
15,70,5,0,19,female,1.376912987,1
16,1,5,0,21,male,4.913349745,0
16,2,40,1,21,male,3.597940342,0
16,3,40,0,21,male,2.509855902,1
16,4,5,0,21,male,2.297361808,1
16,5,5,0,21,male,1.658594162,0
16,6,2,0,21,male,3.044812592,0
16,7,40,1,21,male,2.378567235,0
16,8,80,1,21,male,3.899516555,1
16,9,80,1,21,male,1.548645283,0
16,10,2,0,21,male,1.399117634,1
16,11,10,0,21,male,1.076535197,0
16,12,20,0,21,male,4.440924809,1
16,13,10,0,21,male,1.864943392,1
16,14,10,0,21,male,2.995285396,1
16,15,20,1,21,male,3.622942115,1
16,16,20,1,21,male,3.397140386,1
16,17,2,0,21,male,1.736860885,0
16,18,5,0,21,male,3.949063977,1
16,19,1,0,21,male,2.998685054,1
16,20,1,0,21,male,1.59868596,1
16,21,1,0,21,male,3.194922246,0
16,22,80,1,21,male,1.722610813,0
16,23,1,0,21,male,1.845119895,0
16,24,10,0,21,male,2.26819604,1
16,25,5,0,21,male,0.837178603,1
16,26,40,1,21,male,1.359361968,1
16,27,40,1,21,male,1.46354181,0
16,28,1,0,21,male,1.410752003,0
16,29,80,1,21,male,1.610714873,1
16,30,40,1,21,male,2.022910418,0
16,31,40,1,21,male,1.478953477,1
16,32,2,0,21,male,1.62660259,1
16,33,80,1,21,male,3.563368083,1
16,34,2,0,21,male,1.214935921,0
16,35,2,0,21,male,1.103111524,1
16,36,2,0,21,male,1.585163998,0
16,37,40,1,21,male,1.738686292,1
16,38,20,1,21,male,3.425620305,0
16,39,20,1,21,male,1.509288387,1
16,40,5,0,21,male,1.522902117,1
16,41,20,1,21,male,1.215073573,0
16,42,20,1,21,male,1.153304645,0
16,43,10,0,21,male,1.226740846,0
16,44,20,1,21,male,1.190969863,1
16,45,20,1,21,male,1.36939371,0
16,46,80,1,21,male,1.744824214,0
16,47,2,0,21,male,1.917346201,0
16,48,40,1,21,male,1.498738033,1
16,49,80,1,21,male,1.922987546,1
16,50,5,0,21,male,1.131382851,0
16,51,5,0,21,male,0.777165049,0
16,52,1,0,21,male,0.8629752,1
16,53,10,0,21,male,1.773159235,0
16,54,80,1,21,male,1.188949749,0
16,55,1,0,21,male,1.194949716,1
16,56,10,0,21,male,1.521326054,0
16,57,2,0,21,male,1.371221532,1
16,58,10,0,21,male,1.390657427,1
16,59,80,1,21,male,1.539227847,0
16,60,1,0,21,male,0.89066754,0
16,61,10,0,21,male,0.746796933,0
16,62,10,0,21,male,0.834990952,1
16,63,2,0,21,male,0.77920901,1
16,64,5,0,21,male,1.197035637,0
16,65,5,0,21,male,0.879511635,1
16,66,80,1,21,male,1.053275817,1
16,67,1,0,21,male,0.747081295,1
16,68,40,1,21,male,1.195535645,0
16,69,1,0,21,male,1.387322369,0
16,70,20,1,21,male,1.066527002,0
17,1,10,1,19,male,6.137597749,1
17,2,10,1,19,male,3.077216518,0
17,3,1,0,19,male,2.895808687,1
17,4,2,0,19,male,2.317546642,0
17,5,1,0,19,male,2.902925271,0
17,6,2,0,19,male,1.061221939,1
17,7,1,0,19,male,2.279376699,0
17,8,1,1,19,male,1.545425539,0
17,9,10,1,19,male,1.265165266,0
17,10,2,0,19,male,1.88296231,0
17,11,5,1,19,male,1.541282373,1
17,12,5,1,19,male,1.339154493,0
17,13,1,1,19,male,1.906965498,0
17,14,80,1,19,male,2.757480111,1
17,15,40,1,19,male,2.065683577,0
17,16,10,0,19,male,2.821251342,1
17,17,20,1,19,male,1.984468188,1
17,18,80,1,19,male,1.655333966,0
17,19,20,1,19,male,1.514889583,1
17,20,80,1,19,male,2.604768337,0
17,21,5,0,19,male,2.227015547,1
17,22,40,1,19,male,1.737122003,1
17,23,10,1,19,male,2.436463473,1
17,24,2,1,19,male,2.128702548,0
17,25,5,0,19,male,3.678583989,1
17,26,20,1,19,male,5.391583866,0
17,27,40,1,19,male,1.402588233,0
17,28,1,0,19,male,2.020330336,1
17,29,10,1,19,male,4.183223578,0
17,30,2,0,19,male,2.578842842,1
17,31,20,1,19,male,1.622607643,0
17,32,10,1,19,male,2.399442144,1
17,33,80,1,19,male,1.639371386,1
17,34,20,1,19,male,2.58909193,1
17,35,5,0,19,male,1.884632556,1
17,36,20,1,19,male,2.085831282,0
17,37,5,0,19,male,1.340948204,0
17,38,20,1,19,male,1.243357277,1
17,39,10,0,19,male,2.827619288,0
17,40,40,1,19,male,3.965530982,1
17,41,2,0,19,male,2.110965274,0
17,42,40,1,19,male,1.618063897,1
17,43,20,1,19,male,1.96195503,0
17,44,2,0,19,male,1.592715879,1
17,45,10,0,19,male,1.662796795,0
17,46,40,1,19,male,1.184729608,0
17,47,1,0,19,male,1.630898199,1
17,48,5,0,19,male,2.890075271,1
17,49,10,1,19,male,2.403983777,1
17,50,2,0,19,male,1.520608509,1
17,51,5,0,19,male,1.28697386,0
17,52,80,1,19,male,1.42085559,0
17,53,2,0,19,male,1.423439295,0
17,54,20,1,19,male,1.34249257,1
17,55,80,1,19,male,2.625690037,1
17,56,80,1,19,male,2.333241162,1
17,57,5,0,19,male,2.379514503,0
17,58,2,0,19,male,1.433493677,1
17,59,40,1,19,male,1.17902336,1
17,60,1,0,19,male,1.563025763,1
17,61,40,1,19,male,1.082868127,1
17,62,1,0,19,male,1.729815844,1
17,63,40,1,19,male,3.329594573,0
17,64,1,0,19,male,1.658415756,0
17,65,40,1,19,male,1.482176542,0
17,66,5,0,19,male,10.12444286,0
17,67,80,1,19,male,1.33662935,0
17,68,80,1,19,male,2.094578265,0
17,69,20,1,19,male,2.020117216,0
17,70,80,1,19,male,2.159101756,1
18,1,1,1,18,male,6.780144203,1
18,2,5,0,18,male,3.323522158,0
18,3,1,1,18,male,3.963932882,1
18,4,40,0,18,male,3.135123623,1
18,5,40,1,18,male,2.33699733,0
18,6,5,0,18,male,2.719245868,1
18,7,80,1,18,male,1.729092866,1
18,8,20,0,18,male,5.381179919,1
18,9,40,1,18,male,2.875283645,1
18,10,2,1,18,male,5.060684611,0
18,11,80,1,18,male,1.001308908,0
18,12,10,0,18,male,2.850544498,0
18,13,80,1,18,male,1.016980486,1
18,14,10,0,18,male,2.011423966,1
18,15,20,1,18,male,2.617074669,1
18,16,10,1,18,male,7.15093225,1
18,17,20,1,18,male,1.946687053,0
18,18,40,0,18,male,1.491091969,0
18,19,2,0,18,male,2.411033648,1
18,20,10,1,18,male,0.824862914,0
18,21,80,0,18,male,3.296673846,1
18,22,2,1,18,male,1.281198786,1
18,23,1,0,18,male,1.04064256,0
18,24,10,0,18,male,0.65073045,0
18,25,1,1,18,male,1.11675031,1
18,26,2,0,18,male,1.163101231,1
18,27,20,0,18,male,1.279235726,1
18,28,2,0,18,male,1.594761349,1
18,29,80,0,18,male,0.948919985,0
18,30,20,1,18,male,1.227158634,0
18,31,2,1,18,male,0.718557907,0
18,32,5,0,18,male,0.711023233,1
18,33,1,0,18,male,1.214618051,0
18,34,80,0,18,male,1.239362934,0
18,35,1,1,18,male,2.521201382,1
18,36,20,1,18,male,1.500622607,1
18,37,1,0,18,male,0.925212026,1
18,38,2,1,18,male,3.125063204,0
18,39,2,0,18,male,1.423413937,0
18,40,5,1,18,male,3.083395494,1
18,41,40,1,18,male,1.13947055,1
18,42,20,1,18,male,2.462903657,0
18,43,20,1,18,male,1.186636822,0
18,44,40,0,18,male,2.188768024,0
18,45,40,1,18,male,2.694676977,0
18,46,5,1,18,male,1.75515692,0
18,47,5,0,18,male,1.58090733,0
18,48,5,0,18,male,0.90505285,0
18,49,20,1,18,male,2.166686238,0
18,50,1,0,18,male,1.910392325,0
18,51,80,1,18,male,0.970700504,1
18,52,10,0,18,male,2.273115313,1
18,53,20,1,18,male,2.021459934,1
18,54,2,1,18,male,1.919341863,1
18,55,40,1,18,male,4.774699979,1
18,56,40,1,18,male,4.011174319,1
18,57,40,0,18,male,1.495313318,0
18,58,80,1,18,male,1.600898365,0
18,59,5,1,18,male,0.876663492,1
18,60,80,0,18,male,1.094838779,0
18,61,5,1,18,male,0.967454497,0
18,62,10,1,18,male,2.686640897,0
18,63,10,1,18,male,0.886519847,0
18,64,2,1,18,male,1.446850817,0
18,65,5,0,18,male,1.368611866,1
18,66,10,1,18,male,1.184805679,1
18,67,80,1,18,male,3.156925575,1
18,68,10,0,18,male,1.555386642,1
18,69,1,1,18,male,1.291001107,0
18,70,1,0,18,male,1.268776234,0
19,1,40,1,19,female,6.030075603,1
19,2,5,0,19,female,6.243552888,0
19,3,80,0,19,female,7.054428658,1
19,4,80,1,19,female,9.79624987,1
19,5,2,0,19,female,4.861471284,1
19,6,1,1,19,female,7.065580639,0
19,7,80,0,19,female,5.12702083,1
19,8,10,1,19,female,3.328922007,0
19,9,2,0,19,female,3.358565937,1
19,10,40,0,19,female,6.907978875,1
19,11,40,0,19,female,6.454947874,1
19,12,20,1,19,female,2.22827827,1
19,13,40,0,19,female,2.629481222,0
19,14,1,1,19,female,2.197327546,1
19,15,1,1,19,female,2.810508092,0
19,16,2,0,19,female,4.128684436,1
19,17,20,0,19,female,4.711576259,1
19,18,5,1,19,female,4.355182277,1
19,19,10,0,19,female,2.921013619,0
19,20,80,0,19,female,4.661414231,0
19,21,10,0,19,female,3.891325013,1
19,22,5,0,19,female,3.204984778,1
19,23,80,0,19,female,3.618912152,0
19,24,10,0,19,female,3.631410774,0
19,25,5,0,19,female,2.27332149,1
19,26,1,1,19,female,2.003844917,1
19,27,5,1,19,female,2.819033805,0
19,28,2,0,19,female,1.912867357,0
19,29,20,0,19,female,1.637071137,1
19,30,1,1,19,female,2.486620068,0
19,31,1,1,19,female,1.809447925,0
19,32,10,0,19,female,2.171604303,1
19,33,5,1,19,female,2.385097889,0
19,34,20,0,19,female,1.959088474,0
19,35,80,0,19,female,2.221450274,0
19,36,1,0,19,female,3.296963339,1
19,37,5,0,19,female,2.349123747,1
19,38,5,1,19,female,3.293047483,1
19,39,1,0,19,female,2.465605694,1
19,40,40,0,19,female,4.988835341,1
19,41,40,1,19,female,3.7990153,1
19,42,2,0,19,female,4.907331364,0
19,43,2,0,19,female,2.803082997,1
19,44,5,0,19,female,4.201057752,0
19,45,2,1,19,female,2.030930197,0
19,46,40,0,19,female,2.181281951,0
19,47,2,0,19,female,2.474577269,0
19,48,80,0,19,female,10.55574285,0
19,49,10,0,19,female,5.629007889,0
19,50,40,0,19,female,3.999209403,0
19,51,20,1,19,female,2.980636251,1
19,52,40,1,19,female,6.899373469,0
19,53,80,0,19,female,3.329522427,1
19,54,80,0,19,female,4.935147169,0
19,55,40,1,19,female,6.494818553,0
19,56,20,0,19,female,3.328914461,0
19,57,20,0,19,female,4.077165803,0
19,58,20,0,19,female,2.284922653,0
19,59,20,0,19,female,2.11141506,0
19,60,10,0,19,female,2.476846123,1
19,61,2,1,19,female,1.401445655,0
19,62,5,0,19,female,2.975342358,0
19,63,1,1,19,female,1.494821874,0
19,64,1,1,19,female,1.863135191,1
19,65,2,0,19,female,1.254629402,1
19,66,10,0,19,female,2.583185543,1
19,67,10,0,19,female,2.661213789,0
19,68,10,1,19,female,4.417665126,1
19,69,80,1,19,female,6.805068698,1
19,70,20,0,19,female,2.480822052,1
20,1,40,1,18,male,16.43542655,1
20,2,80,0,18,male,8.969950659,1
20,3,5,1,18,male,3.548184931,1
20,4,20,1,18,male,2.755108017,0
20,5,80,1,18,male,2.223023318,0
20,6,1,0,18,male,2.785454397,1
20,7,10,1,18,male,2.524950908,0
20,8,2,0,18,male,1.841244489,0
20,9,2,0,18,male,1.241307278,0
20,10,20,1,18,male,1.896851648,1
20,11,40,1,18,male,2.022997357,0
20,12,40,1,18,male,1.277450467,0
20,13,40,1,18,male,1.613283182,1
20,14,2,1,18,male,1.368725671,0
20,15,20,0,18,male,4.094920284,0
20,16,1,0,18,male,1.548967982,0
20,17,5,0,18,male,1.54505605,0
20,18,10,1,18,male,1.584583503,0
20,19,40,1,18,male,2.735225052,1
20,20,1,1,18,male,3.651172991,1
20,21,40,1,18,male,2.602958024,1
20,22,5,0,18,male,3.737267504,1
20,23,20,1,18,male,1.769120215,0
20,24,5,1,18,male,2.194873343,1
20,25,5,1,18,male,4.493249736,1
20,26,2,1,18,male,2.664903545,0
20,27,80,1,18,male,1.558894975,1
20,28,20,1,18,male,1.558925464,1
20,29,5,1,18,male,2.587206451,0
20,30,80,1,18,male,4.792747575,0
20,31,80,1,18,male,5.58700631,0
20,32,20,0,18,male,2.907555351,1
20,33,10,0,18,male,1.658991422,1
20,34,2,0,18,male,1.016662616,1
20,35,2,0,18,male,1.022695186,1
20,36,80,0,18,male,0.384783341,0
20,37,1,0,18,male,1.757432113,0
20,38,80,0,18,male,3.209181072,1
20,39,2,0,18,male,4.548727694,1
20,40,20,0,18,male,1.924882686,1
20,41,5,0,18,male,1.493369276,1
20,42,40,1,18,male,1.404866445,0
20,43,10,0,18,male,2.484812169,0
20,44,80,0,18,male,3.624859895,1
20,45,10,0,18,male,8.413658709,0
20,46,10,0,18,male,3.350836557,0
20,47,1,0,18,male,2.115330314,1
20,48,1,0,18,male,0.841487797,0
20,49,2,0,18,male,0.924503839,0
20,50,10,0,18,male,0.8865606,1
20,51,40,0,18,male,1.305191408,0
20,52,20,0,18,male,0.884911182,1
20,53,10,0,18,male,1.996743125,1
20,54,2,0,18,male,1.580511881,1
20,55,20,0,18,male,2.757050851,0
20,56,40,0,18,male,1.785020006,0
20,57,2,0,18,male,1.818733444,1
20,58,1,0,18,male,1.84690123,1
20,59,1,0,18,male,1.880658438,0
20,60,1,0,18,male,1.440734027,1
20,61,1,0,18,male,2.012546318,0
20,62,20,0,18,male,1.953345096,0
20,63,5,0,18,male,1.085186186,0
20,64,80,1,18,male,4.905160014,1
20,65,5,0,18,male,2.878619609,0
20,66,5,0,18,male,1.530829523,0
20,67,40,0,18,male,2.212944485,1
20,68,10,0,18,male,2.027243761,1
20,69,80,0,18,male,3.993614243,0
20,70,10,0,18,male,5.031600348,1
21,1,20,0,18,male,4.180556558,1
21,2,2,0,18,male,4.083640008,1
21,3,1,0,18,male,1.870961471,0
21,4,80,1,18,male,1.247025902,1
21,5,5,0,18,male,1.498945719,0
21,6,2,0,18,male,1.323106181,1
21,7,5,0,18,male,0.732565577,0
21,8,1,0,18,male,0.885392363,1
21,9,5,0,18,male,1.312851056,1
21,10,20,0,18,male,2.189022198,0
21,11,5,0,18,male,0.804764715,1
21,12,10,0,18,male,0.984629688,0
21,13,80,1,18,male,1.725192404,0
21,14,2,0,18,male,1.44469607,0
21,15,20,0,18,male,0.850837614,1
21,16,2,0,18,male,0.886598032,0
21,17,2,0,18,male,1.303452034,1
21,18,80,1,18,male,1.186510338,1
21,19,10,0,18,male,1.076702131,1
21,20,40,1,18,male,2.752705736,0
21,21,5,0,18,male,1.13849219,1
21,22,1,0,18,male,1.587323878,0
21,23,1,0,18,male,1.164548697,0
21,24,40,1,18,male,1.563163718,0
21,25,10,0,18,male,1.171296094,0
21,26,80,1,18,male,1.602945043,0
21,27,40,1,18,male,1.830791639,1
21,28,20,0,18,male,1.112565185,0
21,29,2,0,18,male,1.251009981,0
21,30,2,0,18,male,1.036820887,0
21,31,20,0,18,male,1.048662943,0
21,32,10,0,18,male,1.375749883,0
21,33,5,0,18,male,1.000632417,0
21,34,20,0,18,male,0.991176342,1
21,35,40,1,18,male,1.378978985,0
21,36,1,0,18,male,1.013077609,1
21,37,40,1,18,male,1.186830924,0
21,38,2,0,18,male,2.202584912,1
21,39,80,1,18,male,1.492999485,1
21,40,10,0,18,male,1.856604839,1
21,41,1,0,18,male,1.204852861,1
21,42,1,0,18,male,1.327066413,0
21,43,80,1,18,male,1.798105464,1
21,44,20,0,18,male,1.070928869,0
21,45,40,1,18,male,1.391032652,1
21,46,20,0,18,male,1.160532015,1
21,47,10,0,18,male,1.590750403,1
21,48,1,0,18,male,0.866719594,1
21,49,10,0,18,male,1.197360147,1
21,50,1,0,18,male,1.678670625,0
21,51,80,1,18,male,1.1873921,0
21,52,20,1,18,male,2.102914705,1
21,53,10,0,18,male,4.121145838,0
21,54,40,1,18,male,1.429453751,1
21,55,10,0,18,male,1.522835102,0
21,56,5,0,18,male,1.094853872,0
21,57,10,0,18,male,0.856917576,1
21,58,80,1,18,male,1.344508156,1
21,59,40,1,18,male,1.190703311,1
21,60,80,1,18,male,1.618606659,0
21,61,2,0,18,male,1.246726145,0
21,62,5,0,18,male,0.864583563,1
21,63,5,0,18,male,0.982671458,1
21,64,20,0,18,male,0.984840696,0
21,65,80,1,18,male,1.197344752,0
21,66,2,0,18,male,0.793246566,1
21,67,5,0,18,male,0.888688179,0
21,68,40,1,18,male,1.037165623,0
21,69,40,1,18,male,0.954580348,1
21,70,1,0,18,male,1.090791306,1
22,1,40,1,21,male,6.379784978,1
22,2,10,0,21,male,5.765542754,0
22,3,20,1,21,male,1.985996857,1
22,4,1,0,21,male,3.261588107,1
22,5,1,0,21,male,2.898690941,1
22,6,40,1,21,male,4.010805534,0
22,7,80,1,21,male,2.267054972,1
22,8,80,1,21,male,1.667236396,0
22,9,20,1,21,male,1.539406856,1
22,10,10,1,21,male,1.858904182,1
22,11,10,1,21,male,1.425118899,1
22,12,2,1,21,male,2.335140226,0
22,13,5,1,21,male,1.524539762,0
22,14,1,1,21,male,1.759400909,0
22,15,1,1,21,male,1.059482867,0
22,16,5,1,21,male,1.720364927,1
22,17,2,1,21,male,3.609486866,1
22,18,40,1,21,male,1.586961634,1
22,19,10,1,21,male,1.813141304,1
22,20,80,1,21,male,1.54875456,0
22,21,20,1,21,male,1.430970346,0
22,22,2,1,21,male,1.374827066,1
22,23,5,1,21,male,1.358888938,0
22,24,80,1,21,male,1.366790685,1
22,25,5,1,21,male,1.518627337,0
22,26,10,1,21,male,1.276777599,0
22,27,1,1,21,male,1.087330368,1
22,28,5,1,21,male,1.677474314,1
22,29,80,1,21,male,1.18270406,0
22,30,10,1,21,male,1.802742488,1
22,31,40,1,21,male,1.274670245,0
22,32,1,1,21,male,1.160814566,0
22,33,1,1,21,male,1.363355707,0
22,34,5,1,21,male,0.878636514,1
22,35,20,1,21,male,1.179496391,0
22,36,5,1,21,male,0.766996862,0
22,37,40,1,21,male,0.909405814,1
22,38,40,1,21,male,1.159523468,1
22,39,1,1,21,male,1.218751254,1
22,40,80,1,21,male,1.308880862,1
22,41,2,1,21,male,2.698812897,0
22,42,40,1,21,male,1.137138001,0
22,43,40,1,21,male,1.239224073,0
22,44,1,1,21,male,1.053057867,1
22,45,80,1,21,male,1.628897405,1
22,46,10,1,21,male,1.201406412,0
22,47,20,1,21,male,1.188614674,1
22,48,10,1,21,male,1.331145883,1
22,49,2,1,21,male,1.089076082,1
22,50,2,1,21,male,0.976555876,0
22,51,20,1,21,male,1.528943742,0
22,52,20,1,21,male,1.507198541,1
22,53,10,1,21,male,1.069187985,0
22,54,5,1,21,male,0.939501945,0
22,55,10,1,21,male,1.076652625,0
22,56,40,1,21,male,0.840922696,0
22,57,1,1,21,male,0.851372527,0
22,58,20,1,21,male,0.773586985,0
22,59,80,1,21,male,3.010897203,0
22,60,5,1,21,male,0.932890993,1
22,61,40,1,21,male,0.869125196,1
22,62,20,1,21,male,1.018948376,1
22,63,2,1,21,male,0.857380946,0
22,64,2,1,21,male,1.329374208,1
22,65,80,1,21,male,1.076585308,0
22,66,2,1,21,male,1.084794359,0
22,67,20,1,21,male,0.777464504,0
22,68,2,1,21,male,1.319303526,1
22,69,5,1,21,male,1.141439648,1
22,70,80,1,21,male,0.900589099,1
23,1,1,0,31,female,4.630406755,1
23,2,1,0,31,female,3.662266711,0
23,3,2,0,31,female,2.325669963,1
23,4,80,0,31,female,4.871720372,1
23,5,40,1,31,female,3.399022545,0
23,6,1,0,31,female,2.072799859,1
23,7,1,0,31,female,2.032960574,1
23,8,5,0,31,female,2.475191575,1
23,9,20,0,31,female,1.881157128,1
23,10,5,0,31,female,2.053313853,0
23,11,40,0,31,female,2.331522013,0
23,12,80,0,31,female,1.62133345,1
23,13,5,1,31,female,2.539287617,0
23,14,20,1,31,female,2.078446034,1
23,15,80,0,31,female,1.6132859,1
23,16,10,0,31,female,2.31922685,1
23,17,80,1,31,female,2.505545502,0
23,18,2,0,31,female,2.055052322,0
23,19,20,0,31,female,1.986941107,0
23,20,10,0,31,female,0.737347499,0
23,21,2,0,31,female,2.150874895,1
23,22,40,0,31,female,2.663201603,1
23,23,10,0,31,female,1.910671555,1
23,24,2,0,31,female,2.1390588,0
23,25,2,0,31,female,1.629202898,1
23,26,1,0,31,female,2.357369928,0
23,27,5,0,31,female,1.611068363,1
23,28,2,0,31,female,2.317469062,1
23,29,40,0,31,female,1.582645497,1
23,30,1,0,31,female,2.165121646,0
23,31,20,0,31,female,1.934975103,0
23,32,20,0,31,female,1.108814149,0
23,33,2,0,31,female,1.415435817,1
23,34,2,0,31,female,1.268659109,0
23,35,5,0,31,female,1.657485695,0
23,36,40,0,31,female,2.491453609,1
23,37,40,0,31,female,2.499663868,1
23,38,80,0,31,female,2.199223591,0
23,39,5,0,31,female,1.996712033,1
23,40,5,0,31,female,2.611038478,1
23,41,5,0,31,female,2.059222654,1
23,42,10,0,31,female,1.803476032,1
23,43,10,1,31,female,2.903589082,0
23,44,20,0,31,female,1.916372369,1
23,45,2,0,31,female,1.509530788,0
23,46,40,0,31,female,1.620997771,0
23,47,10,0,31,female,1.3571393,0
23,48,1,0,31,female,1.842787346,0
23,49,10,0,31,female,1.114820455,1
23,50,80,0,31,female,1.696935869,0
23,51,1,0,31,female,1.223252135,1
23,52,80,0,31,female,1.646991791,1
23,53,40,0,31,female,1.382574558,0
23,54,1,0,31,female,1.35863748,1
23,55,20,0,31,female,1.906928066,0
23,56,20,0,31,female,1.124958455,1
23,57,5,0,31,female,1.729163201,0
23,58,20,0,31,female,1.448627624,0
23,59,80,0,31,female,1.011015234,0
23,60,1,0,31,female,1.394912586,0
23,61,80,0,31,female,0.680680173,1
23,62,40,0,31,female,1.538904242,1
23,63,80,0,31,female,1.650766674,0
23,64,5,0,31,female,2.001692585,0
23,65,10,0,31,female,1.138788022,0
23,66,10,0,31,female,1.056646799,0
23,67,2,0,31,female,0.988615278,0
23,68,10,0,31,female,1.585065287,1
23,69,40,0,31,female,1.44902096,0
23,70,20,0,31,female,1.251022056,1
24,1,2,1,19,female,3.128973627,1
24,2,1,0,19,female,1.749014169,1
24,3,10,0,19,female,3.417843834,0
24,4,5,1,19,female,1.525444767,0
24,5,1,1,19,female,1.274618323,0
24,6,5,0,19,female,2.253462373,0
24,7,2,1,19,female,1.066913999,0
24,8,10,0,19,female,1.74529664,0
24,9,5,1,19,female,2.367233528,1
24,10,5,1,19,female,4.37892314,0
24,11,20,1,19,female,4.743108989,0
24,12,2,1,19,female,2.365559056,0
24,13,20,0,19,female,2.211937447,1
24,14,1,0,19,female,1.582736662,1
24,15,80,0,19,female,3.202931459,1
24,16,20,1,19,female,2.037206073,1
24,17,40,0,19,female,3.475404392,1
24,18,80,1,19,female,1.626872764,0
24,19,10,0,19,female,2.17872149,0
24,20,80,1,19,female,1.344623772,0
24,21,80,0,19,female,3.171294283,0
24,22,1,1,19,female,1.122676319,0
24,23,1,0,19,female,1.624862913,0
24,24,10,1,19,female,1.254785167,0
24,25,40,1,19,female,2.418857815,1
24,26,80,1,19,female,1.54293964,0
24,27,2,0,19,female,1.617400085,0
24,28,5,1,19,female,1.197150046,1
24,29,5,0,19,female,1.253484409,1
24,30,5,0,19,female,0.931530768,0
24,31,40,1,19,female,1.442010937,1
24,32,80,1,19,female,1.809956878,1
24,33,10,0,19,female,1.939427685,1
24,34,20,1,19,female,1.501424675,1
24,35,80,1,19,female,1.388781608,1
24,36,2,0,19,female,2.533696081,1
24,37,20,1,19,female,0.921025392,0
24,38,10,0,19,female,0.731057133,1
24,39,40,1,19,female,1.557691419,0
24,40,80,1,19,female,0.843416141,1
24,41,20,0,19,female,3.059336761,0
24,42,5,1,19,female,0.975002754,1
24,43,1,0,19,female,2.066548435,0
24,44,1,1,19,female,1.844967149,1
24,45,10,1,19,female,1.3831463,1
24,46,2,0,19,female,1.290709198,1
24,47,5,0,19,female,1.499462822,0
24,48,2,1,19,female,1.148966775,0
24,49,10,0,19,female,1.378669267,0
24,50,20,0,19,female,0.711266239,0
24,51,2,0,19,female,1.27684884,1
24,52,20,1,19,female,1.202639249,1
24,53,5,1,19,female,1.100920552,1
24,54,1,0,19,female,0.98289122,1
24,55,10,1,19,female,1.361236882,1
24,56,1,1,19,female,1.773202403,1
24,57,40,1,19,female,1.272630509,1
24,58,20,1,19,female,1.585084003,1
24,59,40,1,19,female,0.979192408,0
24,60,20,1,19,female,1.034685761,0
24,61,10,1,19,female,1.408818224,1
24,62,2,0,19,female,1.415357029,0
24,63,1,0,19,female,1.418824005,0
24,64,40,1,19,female,0.913574034,0
24,65,40,1,19,female,1.311031082,1
24,66,80,1,19,female,1.242881831,1
24,67,40,1,19,female,1.258669629,0
24,68,40,1,19,female,1.051506557,0
24,69,80,1,19,female,0.939567753,0
24,70,2,0,19,female,1.307423736,1
25,1,40,1,19,female,2.431254104,0
25,2,2,0,19,female,2.392503362,0
25,3,2,1,19,female,3.030055982,0
25,4,20,0,19,female,1.311748929,0
25,5,10,1,19,female,2.079335947,1
25,6,2,0,19,female,1.899149482,1
25,7,10,0,19,female,1.641309391,0
25,8,2,0,19,female,1.651291928,0
25,9,1,0,19,female,1.979385906,0
25,10,10,1,19,female,1.092803874,0
25,11,2,1,19,female,1.962709404,0
25,12,80,1,19,female,1.577463297,0
25,13,40,0,19,female,1.596982206,0
25,14,80,1,19,female,1.555089602,0
25,15,20,1,19,female,2.369292885,0
25,16,5,1,19,female,2.417437517,1
25,17,10,0,19,female,2.286980803,1
25,18,2,0,19,female,1.520619377,0
25,19,80,1,19,female,1.951428826,1
25,20,1,0,19,female,1.551268231,0
25,21,5,0,19,female,1.255053529,0
25,22,5,1,19,female,1.032607085,0
25,23,5,0,19,female,1.879441299,1
25,24,80,1,19,female,1.310836074,1
25,25,40,1,19,female,1.805093451,0
25,26,1,0,19,female,1.074813331,1
25,27,2,1,19,female,1.658642461,1
25,28,10,0,19,female,1.135083173,0
25,29,1,0,19,female,1.237369385,1
25,30,5,0,19,female,0.947635528,1
25,31,40,1,19,female,2.459263407,1
25,32,20,1,19,female,1.836496679,1
25,33,5,1,19,female,2.135537185,0
25,34,1,1,19,female,2.06689166,1
25,35,80,1,19,female,1.263168095,0
25,36,1,0,19,female,2.294957716,0
25,37,2,0,19,female,1.322845366,1
25,38,10,1,19,female,2.245083972,0
25,39,10,0,19,female,2.226887253,1
25,40,2,1,19,female,2.08728871,1
25,41,5,0,19,female,1.348967378,1
25,42,40,1,19,female,2.200828029,0
25,43,20,1,19,female,2.112990519,0
25,44,40,1,19,female,1.465079233,1
25,45,10,0,19,female,1.39257732,0
25,46,40,1,19,female,1.11319881,1
25,47,80,1,19,female,1.874440824,0
25,48,20,1,19,female,1.447531534,1
25,49,1,1,19,female,1.330605838,0
25,50,5,0,19,female,2.063444909,0
25,51,80,1,19,female,0.863190735,1
25,52,40,1,19,female,2.580932688,1
25,53,10,0,19,female,1.646977603,1
25,54,40,1,19,female,2.599034922,1
25,55,20,1,19,female,2.08290737,1
25,56,80,1,19,female,1.585732118,1
25,57,20,1,19,female,2.022216721,0
25,58,40,1,19,female,1.240640146,0
25,59,2,0,19,female,1.5134717,1
25,60,20,1,19,female,1.106934405,1
25,61,80,1,19,female,1.330784243,1
25,62,1,0,19,female,1.619620942,0
25,63,5,1,19,female,2.517397519,0
25,64,80,1,19,female,1.179588461,0
25,65,1,0,19,female,1.283392776,1
25,66,5,1,19,female,1.071106972,1
25,67,10,1,19,female,2.150363225,1
25,68,20,1,19,female,0.836627691,0
25,69,20,1,19,female,1.503063829,1
25,70,1,1,19,female,1.071588153,1
26,1,20,0,20,male,4.160333083,0
26,2,2,0,20,male,3.981038644,0
26,3,20,1,20,male,1.252093091,0
26,4,10,1,20,male,3.915686822,1
26,5,2,1,20,male,3.625336245,1
26,6,20,0,20,male,7.351027339,0
26,7,40,1,20,male,2.714971088,1
26,8,1,1,20,male,2.661205638,0
26,9,20,1,20,male,3.298743768,1
26,10,5,0,20,male,9.831880182,0
26,11,20,1,20,male,1.344951603,1
26,12,20,0,20,male,1.698576231,1
26,13,5,0,20,male,2.087016423,1
26,14,1,0,20,male,4.416627298,0
26,15,2,0,20,male,1.17894427,0
26,16,80,1,20,male,1.437437607,1
26,17,40,1,20,male,2.223340885,1
26,18,80,1,20,male,1.431490468,1
26,19,1,0,20,male,2.021448161,1
26,20,1,0,20,male,2.22751635,0
26,21,80,1,20,male,1.715270845,0
26,22,10,0,20,male,3.152747696,1
26,23,5,0,20,male,2.412686386,1
26,24,1,0,20,male,3.089265958,1
26,25,10,0,20,male,2.082935745,0
26,26,1,0,20,male,1.764885282,0
26,27,80,1,20,male,1.245264793,0
26,28,40,1,20,male,3.380862955,1
26,29,10,0,20,male,4.181157882,0
26,30,40,1,20,male,1.467140401,0
26,31,40,1,20,male,1.879004493,0
26,32,40,1,20,male,7.089745026,0
26,33,2,0,20,male,3.104903424,1
26,34,10,0,20,male,1.8808459,1
26,35,80,1,20,male,6.579895462,1
26,36,20,1,20,male,1.864986559,1
26,37,10,0,20,male,1.777064526,0
26,38,20,1,20,male,3.955282195,0
26,39,2,0,20,male,2.260968671,0
26,40,40,1,20,male,4.539168681,1
26,41,2,0,20,male,2.771360996,1
26,42,2,0,20,male,4.329503409,1
26,43,80,1,20,male,1.630879785,1
26,44,2,0,20,male,1.606659553,0
26,45,1,1,20,male,0.690700746,1
26,46,5,0,20,male,1.372842574,0
26,47,80,1,20,male,0.97860044,1
26,48,5,0,20,male,2.253233555,0
26,49,20,1,20,male,1.054738377,0
26,50,20,1,20,male,1.257326308,1
26,51,1,0,20,male,1.256942028,0
26,52,2,0,20,male,1.347049901,0
26,53,5,0,20,male,1.483171204,1
26,54,5,0,20,male,1.983034306,0
26,55,40,1,20,male,25.04753968,0
26,56,80,1,20,male,4.605325589,0
26,57,1,0,20,male,1.743037144,1
26,58,10,0,20,male,9.317561132,0
26,59,5,0,20,male,1.656974629,1
26,60,5,0,20,male,3.142822514,1
26,61,40,1,20,male,0.889261732,1
26,62,10,0,20,male,4.131223766,0
26,63,1,0,20,male,1.239343614,1
26,64,40,1,20,male,1.077060451,0
26,65,80,1,20,male,2.520985243,0
26,66,80,1,20,male,1.450931193,0
26,67,2,0,20,male,4.016988938,1
26,68,5,0,20,male,2.23340553,0
26,69,10,0,20,male,5.461106323,1
26,70,10,0,20,male,2.09335056,1
27,1,20,0,26,male,11.13177498,1
27,2,1,0,26,male,2.58133991,0
27,3,40,1,26,male,1.25184918,0
27,4,5,0,26,male,2.889040461,1
27,5,2,0,26,male,1.257207069,0
27,6,20,1,26,male,1.619339901,0
27,7,40,1,26,male,1.96345623,1
27,8,80,1,26,male,3.974840952,0
27,9,40,0,26,male,6.638816549,0
27,10,1,0,26,male,2.175740223,1
27,11,1,1,26,male,2.591067367,0
27,12,80,0,26,male,4.497562853,1
27,13,10,1,26,male,3.038096891,0
27,14,20,1,26,male,1.437341009,0
27,15,20,1,26,male,2.180796242,1
27,16,20,0,26,male,5.179036341,1
27,17,20,1,26,male,2.829528313,0
27,18,10,1,26,male,2.469669467,0
27,19,5,1,26,male,1.011184281,0
27,20,5,1,26,male,1.2546614,0
27,21,2,0,26,male,0.791210453,1
27,22,10,0,26,male,1.303304419,0
27,23,10,0,26,male,0.939305126,0
27,24,40,0,26,male,1.283141319,1
27,25,40,1,26,male,2.138948315,0
27,26,80,1,26,male,2.046812178,1
27,27,80,1,26,male,2.60679479,0
27,28,5,0,26,male,1.441549076,1
27,29,20,1,26,male,2.247413201,1
27,30,5,0,26,male,3.571005695,0
27,31,20,1,26,male,3.899102692,0
27,32,1,0,26,male,1.792604187,0
27,33,80,1,26,male,2.096953982,1
27,34,2,1,26,male,0.892813835,0
27,35,5,0,26,male,1.485258936,1
27,36,10,0,26,male,2.743920717,1
27,37,80,1,26,male,1.683507789,1
27,38,5,0,26,male,5.243110951,0
27,39,5,1,26,male,0.597542175,1
27,40,10,0,26,male,2.422710279,0
27,41,2,0,26,male,1.490547999,1
27,42,2,0,26,male,1.793082349,1
27,43,40,1,26,male,4.257413246,1
27,44,10,0,26,male,4.196849383,1
27,45,2,1,26,male,3.607366532,1
27,46,2,0,26,male,1.697128463,0
27,47,2,0,26,male,1.136491698,0
27,48,80,1,26,male,1.365308202,0
27,49,1,1,26,male,2.093567303,0
27,50,1,0,26,male,0.848904438,1
27,51,1,1,26,male,1.095348033,0
27,52,1,0,26,male,1.455441432,1
27,53,10,0,26,male,2.525553441,1
27,54,40,1,26,male,3.281232897,0
27,55,20,1,26,male,2.492728406,0
27,56,10,0,26,male,1.434327441,1
27,57,2,1,26,male,1.959369213,1
27,58,1,1,26,male,1.398775616,1
27,59,5,0,26,male,1.825008113,1
27,60,40,1,26,male,1.548721958,1
27,61,40,1,26,male,1.557285103,1
27,62,1,0,26,male,3.603531878,1
27,63,5,0,26,male,1.567260093,0
27,64,80,1,26,male,2.146789689,1
27,65,80,1,26,male,2.034642895,0
27,66,80,1,26,male,5.871011581,0
27,67,10,1,26,male,3.024818236,1
27,68,20,1,26,male,1.385411833,1
27,69,2,0,26,male,1.885471151,0
27,70,40,1,26,male,2.850715054,0
28,1,2,0,23,female,5.334586597,0
28,2,5,0,23,female,2.404977533,0
28,3,20,1,23,female,2.608078945,0
28,4,1,0,23,female,2.539485946,1
28,5,80,0,23,female,4.028750394,1
28,6,20,0,23,female,2.825383337,0
28,7,2,0,23,female,3.16889653,0
28,8,10,0,23,female,2.556976893,0
28,9,80,1,23,female,2.773013432,1
28,10,10,0,23,female,1.508566918,0
28,11,10,1,23,female,1.856200635,1
28,12,20,1,23,female,2.917296393,1
28,13,10,1,23,female,1.465353633,1
28,14,2,0,23,female,1.368787555,0
28,15,40,0,23,female,1.915841983,1
28,16,1,0,23,female,1.55135517,1
28,17,5,0,23,female,1.593140006,1
28,18,2,0,23,female,1.617386803,1
28,19,40,0,23,female,1.112509339,0
28,20,20,1,23,female,1.541337918,0
28,21,80,1,23,female,1.016729632,0
28,22,80,1,23,female,1.382848958,0
28,23,10,1,23,female,2.460126151,0
28,24,5,1,23,female,2.048722713,0
28,25,40,1,23,female,1.25870042,1
28,26,5,0,23,female,2.885268596,1
28,27,20,0,23,female,2.222680092,1
28,28,1,0,23,female,2.698626643,1
28,29,5,0,23,female,2.240831229,1
28,30,20,1,23,female,2.919448121,1
28,31,5,1,23,female,1.223237344,0
28,32,40,1,23,female,0.83268708,0
28,33,10,1,23,female,2.038871188,1
28,34,10,1,23,female,3.187523414,1
28,35,5,1,23,female,1.228762469,0
28,36,80,1,23,female,1.338980615,0
28,37,2,0,23,female,1.561568033,1
28,38,20,1,23,female,1.410690422,1
28,39,80,1,23,female,1.342782969,1
28,40,10,1,23,female,1.487295653,1
28,41,1,0,23,female,1.706861353,0
28,42,2,0,23,female,1.504647439,1
28,43,80,1,23,female,1.443523305,0
28,44,1,0,23,female,1.693679296,1
28,45,20,1,23,female,1.665399517,1
28,46,80,1,23,female,1.97654048,0
28,47,5,0,23,female,3.839159171,1
28,48,1,0,23,female,1.766900264,0
28,49,10,0,23,female,1.019014787,0
28,50,10,1,23,female,1.577018038,0
28,51,2,0,23,female,1.962285276,0
28,52,2,0,23,female,1.022922493,1
28,53,1,0,23,female,1.161041572,1
28,54,20,1,23,female,1.687217167,0
28,55,20,1,23,female,4.920837327,0
28,56,2,0,23,female,1.191313089,1
28,57,1,0,23,female,0.83908461,0
28,58,2,0,23,female,0.789510624,0
28,59,40,1,23,female,1.086953332,0
28,60,40,1,23,female,1.112719441,0
28,61,40,0,23,female,0.970904568,0
28,62,1,0,23,female,1.250676113,0
28,63,40,1,23,female,1.083028721,1
28,64,80,1,23,female,0.839169133,1
28,65,40,1,23,female,1.713381743,1
28,66,80,1,23,female,1.572500857,1
28,67,1,0,23,female,2.094697806,0
28,68,40,1,23,female,1.782501506,1
28,69,5,0,23,female,1.767286355,0
28,70,5,0,23,female,1.387149397,1
29,1,5,1,22,male,4.87532168,0
29,2,20,1,22,male,3.579359341,0
29,3,2,1,22,male,3.098455784,0
29,4,2,0,22,male,1.186920881,1
29,5,10,0,22,male,3.056490128,1
29,6,10,1,22,male,1.893065595,1
29,7,2,0,22,male,2.134734211,0
29,8,80,1,22,male,1.627495823,1
29,9,5,1,22,male,1.633383192,0
29,10,40,1,22,male,1.744557361,1
29,11,2,0,22,male,1.026992606,0
29,12,20,1,22,male,1.462762985,1
29,13,1,0,22,male,1.078565876,1
29,14,80,1,22,male,1.834671875,1
29,15,1,0,22,male,1.987262598,1
29,16,10,1,22,male,0.878580668,0
29,17,40,1,22,male,1.684238918,1
29,18,1,0,22,male,0.954702303,0
29,19,20,1,22,male,1.397111708,0
29,20,40,1,22,male,0.902644833,1
29,21,2,0,22,male,1.465460193,0
29,22,80,1,22,male,0.990871151,0
29,23,20,1,22,male,1.020663903,0
29,24,2,0,22,male,0.932417359,1
29,25,5,0,22,male,1.62491725,1
29,26,10,1,22,male,0.959396683,1
29,27,40,1,22,male,1.431328062,1
29,28,2,0,22,male,0.788538602,0
29,29,10,1,22,male,1.063211866,1
29,30,20,1,22,male,1.32885952,1
29,31,1,0,22,male,1.043334335,0
29,32,40,1,22,male,1.305399397,0
29,33,40,1,22,male,0.694878626,1
29,34,1,0,22,male,1.589109137,0
29,35,40,1,22,male,1.387281314,0
29,36,5,1,22,male,0.836612295,0
29,37,5,0,22,male,1.403444034,0
29,38,40,1,22,male,1.503951326,0
29,39,5,0,22,male,1.866431912,1
29,40,5,1,22,male,1.576551045,1
29,41,5,1,22,male,2.02501083,0
29,42,80,1,22,male,1.221125462,0
29,43,80,1,22,male,0.878667003,1
29,44,20,1,22,male,0.895170534,0
29,45,10,0,22,male,3.472921814,0
29,46,20,1,22,male,2.019465479,0
29,47,20,1,22,male,0.823274776,1
29,48,2,0,22,male,0.927303985,1
29,49,2,1,22,male,0.899428107,1
29,50,5,1,22,male,0.619528872,1
29,51,1,0,22,male,0.938957975,0
29,52,10,1,22,male,1.076759789,0
29,53,80,1,22,male,0.678651306,1
29,54,10,0,22,male,0.743183551,1
29,55,10,1,22,male,2.247837328,0
29,56,1,0,22,male,1.398728222,0
29,57,80,1,22,male,1.018786875,1
29,58,1,0,22,male,0.838928543,1
29,59,2,1,22,male,1.415053348,1
29,60,1,1,22,male,1.065517247,1
29,61,40,1,22,male,1.676978644,0
29,62,20,1,22,male,1.375345377,1
29,63,1,0,22,male,1.390919451,1
29,64,40,1,22,male,0.898699393,0
29,65,80,1,22,male,1.246786519,0
29,66,80,1,22,male,1.297649792,0
29,67,80,1,22,male,1.279466354,0
29,68,5,0,22,male,1.480362606,1
29,69,10,1,22,male,1.327158785,0
29,70,20,1,22,male,0.849430598,1
30,1,2,0,24,male,4.557089491,0
30,2,5,1,24,male,9.824422787,1
30,3,5,1,24,male,17.0502707,0
30,4,20,1,24,male,16.99678509,0
30,5,20,1,24,male,17.57532153,1
30,6,80,0,24,male,5.527812032,1
30,7,2,1,24,male,1.461025724,0
30,8,5,0,24,male,7.408090416,1
30,9,20,1,24,male,21.7242708,1
30,10,2,1,24,male,3.936640218,0
30,11,1,0,24,male,2.212711139,0
30,12,5,1,24,male,6.705037153,0
30,13,5,1,24,male,2.151425203,0
30,14,20,0,24,male,3.240967674,0
30,15,40,1,24,male,46.94571714,1
30,16,80,1,24,male,7.184754361,0
30,17,80,1,24,male,6.197111708,1
30,18,40,1,24,male,3.104654683,0
30,19,20,1,24,male,2.416519832,1
30,20,40,0,24,male,1.750837765,0
30,21,1,1,24,male,2.727001813,1
30,22,10,1,24,male,4.357385625,0
30,23,10,1,24,male,10.53128354,0
30,24,80,1,24,male,3.404950063,1
30,25,1,1,24,male,2.133174147,1
30,26,5,0,24,male,2.002651625,1
30,27,5,1,24,male,1.314607335,0
30,28,40,1,24,male,3.604789468,0
30,29,1,1,24,male,2.214505756,0
30,30,1,1,24,male,0.687062006,0
30,31,1,0,24,male,2.473224892,0
30,32,80,0,24,male,1.417045991,0
30,33,2,1,24,male,4.1073694,0
30,34,20,1,24,male,2.001429656,1
30,35,10,1,24,male,7.823597475,1
30,36,1,0,24,male,1.170681185,1
30,37,40,1,24,male,2.374845782,1
30,38,1,1,24,male,2.119022183,0
30,39,80,1,24,male,1.786236542,0
30,40,5,1,24,male,6.596984017,1
30,41,10,1,24,male,2.161298765,0
30,42,10,0,24,male,1.692517097,1
30,43,2,1,24,male,1.461139227,1
30,44,80,0,24,male,2.613306125,1
30,45,10,1,24,male,2.16322711,1
30,46,40,1,24,male,1.802855388,0
30,47,10,1,24,male,1.798985717,1
30,48,2,1,24,male,3.265403743,1
30,49,20,0,24,male,2.053523954,0
30,50,1,1,24,male,1.595414596,1
30,51,5,1,24,male,1.260871468,0
30,52,20,1,24,male,1.69137301,0
30,53,2,1,24,male,3.185341196,1
30,54,80,1,24,male,1.47151178,0
30,55,40,1,24,male,1.775137087,1
30,56,40,1,24,male,2.972790954,1
30,57,10,1,24,male,1.149421089,0
30,58,20,1,24,male,4.486058892,0
30,59,80,1,24,male,1.67083227,0
30,60,10,1,24,male,5.125182745,0
30,61,20,0,24,male,1.536548148,1
30,62,2,1,24,male,2.870839515,1
30,63,1,0,24,male,1.521525288,1
30,64,40,1,24,male,1.667358049,1
30,65,5,0,24,male,1.835191393,1
30,66,10,1,24,male,1.759374043,1
30,67,2,0,24,male,1.650682452,0
30,68,40,1,24,male,3.059533883,0
30,69,80,0,24,male,1.320999129,1
30,70,2,1,24,male,2.105579009,1
31,1,80,1,22,male,5.643236227,0
31,2,5,1,22,male,3.539424666,0
31,3,5,1,22,male,0.932562257,1
31,4,40,0,22,male,2.46813295,0
31,5,80,1,22,male,3.169333335,0
31,6,40,1,22,male,2.05744766,1
31,7,5,1,22,male,1.197297358,1
31,8,2,1,22,male,0.923134557,0
31,9,2,1,22,male,1.218844834,0
31,10,2,1,22,male,1.054208759,1
31,11,10,1,22,male,2.996801688,0
31,12,10,1,22,male,1.131349947,0
31,13,1,0,22,male,1.190587394,0
31,14,20,0,22,male,1.200955418,0
31,15,1,0,22,male,2.048790634,1
31,16,40,1,22,male,1.886575391,0
31,17,10,0,22,male,2.147391316,0
31,18,20,1,22,male,2.442711275,1
31,19,80,1,22,male,1.702831389,1
31,20,40,1,22,male,1.817448384,1
31,21,1,0,22,male,1.202566196,1
31,22,5,0,22,male,1.411109719,1
31,23,40,1,22,male,1.10253616,0
31,24,5,0,22,male,1.546721164,0
31,25,20,1,22,male,1.584853676,0
31,26,5,0,22,male,1.094598792,0
31,27,80,1,22,male,0.966862832,1
31,28,20,1,22,male,3.233496695,0
31,29,40,1,22,male,1.100822747,0
31,30,5,0,22,male,0.992992693,1
31,31,1,0,22,male,1.057493544,0
31,32,20,1,22,male,1.501246572,1
31,33,20,1,22,male,1.476743488,1
31,34,10,0,22,male,2.470853703,1
31,35,80,1,22,male,1.37318097,0
31,36,80,1,22,male,1.264992295,0
31,37,10,0,22,male,1.107193108,1
31,38,2,0,22,male,0.956810563,0
31,39,1,0,22,male,0.845560323,0
31,40,40,1,22,male,1.255361738,0
31,41,10,0,22,male,1.659396532,1
31,42,5,0,22,male,1.320969848,0
31,43,2,0,22,male,1.019163005,1
31,44,80,1,22,male,1.33973529,0
31,45,40,1,22,male,1.282728663,1
31,46,10,0,22,male,1.581256292,1
31,47,2,0,22,male,1.374837632,0
31,48,2,0,22,male,1.072954114,1
31,49,10,0,22,male,1.284794962,0
31,50,80,1,22,male,1.268701069,1
31,51,1,0,22,male,1.452835691,0
31,52,1,0,22,male,1.496902664,1
31,53,80,1,22,male,2.274742694,1
31,54,1,0,22,male,1.37528289,1
31,55,5,0,22,male,0.8186133,1
31,56,5,0,22,male,1.70948098,0
31,57,1,1,22,male,1.284947105,0
31,58,40,1,22,male,1.695508628,1
31,59,80,1,22,male,1.496865232,1
31,60,20,1,22,male,1.421365146,1
31,61,20,1,22,male,1.355464827,1
31,62,20,1,22,male,1.44163209,0
31,63,2,0,22,male,1.049004056,1
31,64,2,0,22,male,1.127097204,0
31,65,40,1,22,male,0.882889258,1
31,66,2,0,22,male,1.650765165,1
31,67,10,0,22,male,0.833524165,0
31,68,20,1,22,male,2.497410107,0
31,69,1,0,22,male,1.354828787,1
31,70,10,1,22,male,2.157436504,1
32,1,2,1,28,male,4.645728465,1
32,2,80,1,28,male,4.248712449,0
32,3,10,0,28,male,2.108029287,1
32,4,1,1,28,male,1.567698408,0
32,5,20,1,28,male,1.594800592,0
32,6,80,1,28,male,2.554591517,1
32,7,2,1,28,male,0.943107177,0
32,8,10,1,28,male,0.762508358,1
32,9,2,1,28,male,1.303813674,0
32,10,5,1,28,male,1.476568101,1
32,11,1,1,28,male,1.047017751,1
32,12,20,1,28,male,1.239136229,1
32,13,80,1,28,male,1.208567371,0
32,14,5,1,28,male,1.072956831,0
32,15,5,1,28,male,0.978527992,1
32,16,10,1,28,male,0.917415027,1
32,17,1,1,28,male,0.799294228,0
32,18,20,1,28,male,0.664751704,1
32,19,20,0,28,male,1.10518688,0
32,20,1,0,28,male,1.481330703,1
32,21,1,1,28,male,0.98511419,1
32,22,80,1,28,male,2.411250391,1
32,23,40,1,28,male,1.269404124,0
32,24,1,1,28,male,0.799416184,1
32,25,80,1,28,male,1.961283672,0
32,26,40,1,28,male,1.030753603,1
32,27,5,1,28,male,0.79498262,0
32,28,20,1,28,male,0.651374338,1
32,29,40,1,28,male,0.968813515,0
32,30,40,1,28,male,0.807250312,1
32,31,20,1,28,male,1.248819915,0
32,32,20,1,28,male,1.180567425,1
32,33,5,1,28,male,0.911233939,0
32,34,5,1,28,male,1.117005692,0
32,35,5,1,28,male,0.696512044,1
32,36,2,1,28,male,0.946795122,1
32,37,40,1,28,male,0.965596186,0
32,38,80,1,28,male,2.279385151,1
32,39,80,1,28,male,2.690965486,0
32,40,10,1,28,male,1.294948659,0
32,41,20,1,28,male,0.888875942,1
32,42,40,1,28,male,1.480988383,1
32,43,1,1,28,male,0.92108003,0
32,44,2,1,28,male,1.107248954,0
32,45,20,1,28,male,0.814742724,0
32,46,1,1,28,male,0.924737788,1
32,47,10,1,28,male,0.830788016,1
32,48,10,1,28,male,0.817421819,0
32,49,80,1,28,male,1.343021144,1
32,50,40,1,28,male,1.129199728,0
32,51,1,1,28,male,0.96538699,0
32,52,40,1,28,male,0.770937774,1
32,53,2,1,28,male,0.844628149,1
32,54,2,1,28,male,0.702675926,1
32,55,10,1,28,male,0.571112557,0
32,56,2,1,28,male,0.544913869,0
32,57,5,1,28,male,0.892729915,1
32,58,2,1,28,male,0.770897323,1
32,59,2,1,28,male,0.656993949,0
32,60,40,1,28,male,0.775426882,0
32,61,5,1,28,male,0.659167413,0
32,62,10,1,28,male,0.730912236,1
32,63,10,1,28,male,0.944848363,0
32,64,80,1,28,male,1.5734442,1
32,65,5,1,28,male,0.64690938,1
32,66,10,1,28,male,0.640752139,0
32,67,20,1,28,male,0.651340529,0
32,68,1,1,28,male,0.662755439,0
32,69,40,1,28,male,0.755466336,1
32,70,80,1,28,male,1.474953399,0
33,1,40,0,23,female,3.506221992,1
33,2,1,1,23,female,1.881475902,1
33,3,10,0,23,female,2.272158687,1
33,4,2,0,23,female,2.263734705,0
33,5,1,0,23,female,1.498797803,0
33,6,20,1,23,female,1.332884956,0
33,7,5,0,23,female,1.138659728,1
33,8,5,0,23,female,4.079006003,1
33,9,40,1,23,female,2.438769759,1
33,10,2,0,23,female,1.626932835,0
33,11,1,0,23,female,1.293377426,0
33,12,80,1,23,female,1.859080172,1
33,13,2,0,23,female,0.898717506,1
33,14,5,0,23,female,0.975011207,0
33,15,20,0,23,female,1.691200642,0
33,16,1,0,23,female,1.60292995,0
33,17,5,0,23,female,1.267379482,0
33,18,20,0,23,female,2.266671597,0
33,19,80,1,23,female,1.624878309,1
33,20,10,0,23,female,1.502821729,1
33,21,5,0,23,female,1.561116436,1
33,22,40,1,23,female,2.053268572,0
33,23,20,0,23,female,2.710855092,0
33,24,10,0,23,female,1.404831428,1
33,25,5,0,23,female,0.980734661,0
33,26,80,1,23,female,1.822905287,0
33,27,80,1,23,female,1.130697606,1
33,28,80,1,23,female,1.693194795,1
33,29,5,0,23,female,1.260054005,0
33,30,2,0,23,female,0.875301757,1
33,31,5,0,23,female,1.847410786,1
33,32,2,0,23,female,1.025249005,0
33,33,5,0,23,female,1.290971523,1
33,34,40,1,23,female,2.005150807,0
33,35,1,0,23,female,1.326908535,1
33,36,20,0,23,female,1.616702765,1
33,37,1,0,23,female,1.673549704,1
33,38,40,1,23,female,1.612882299,1
33,39,40,1,23,female,1.504732868,0
33,40,40,1,23,female,1.446863194,0
33,41,80,1,23,female,2.012071477,0
33,42,80,1,23,female,1.114845209,0
33,43,10,0,23,female,1.164945354,0
33,44,20,0,23,female,1.201199027,1
33,45,2,0,23,female,1.839031179,1
33,46,1,0,23,female,1.309848356,0
33,47,2,0,23,female,1.079208557,0
33,48,1,0,23,female,0.936902241,0
33,49,20,0,23,female,1.262667594,1
33,50,40,1,23,female,1.255433281,0
33,51,2,0,23,female,1.394837119,0
33,52,80,1,23,female,1.342946884,0
33,53,80,1,23,female,1.2552102,1
33,54,10,0,23,female,1.089386102,0
33,55,2,0,23,female,1.120675826,1
33,56,10,0,23,female,1.339457268,0
33,57,10,0,23,female,2.155058208,0
33,58,2,0,23,female,0.864914714,1
33,59,20,0,23,female,2.624777182,1
33,60,5,0,23,female,1.841770045,0
33,61,1,0,23,female,0.76065065,1
33,62,20,0,23,female,1.376752393,0
33,63,10,0,23,female,1.125535027,1
33,64,10,0,23,female,1.024783823,0
33,65,1,0,23,female,1.148942021,1
33,66,10,0,23,female,1.523483519,1
33,67,40,1,23,female,1.363063195,1
33,68,40,1,23,female,2.537569977,1
33,69,80,1,23,female,1.697040316,0
33,70,20,0,23,female,1.001046583,1
34,1,20,0,21,female,8.785913541,0
34,2,5,1,21,female,3.229820523,1
34,3,10,1,21,female,1.810480018,0
34,4,80,1,21,female,1.355428301,0
34,5,40,0,21,female,1.227388659,1
34,6,10,0,21,female,1.11719436,1
34,7,80,0,21,female,2.170740049,1
34,8,20,0,21,female,1.592936847,1
34,9,10,0,21,female,1.362748646,1
34,10,80,0,21,female,0.725234364,0
34,11,20,0,21,female,0.957158015,0
34,12,5,0,21,female,1.14257317,1
34,13,1,1,21,female,0.657388191,1
34,14,20,1,21,female,0.674827821,0
34,15,10,0,21,female,0.752567781,0
34,16,1,0,21,female,0.629142825,1
34,17,1,1,21,female,0.48287356,1
34,18,2,1,21,female,0.573369034,0
34,19,80,1,21,female,0.516719821,1
34,20,2,1,21,female,0.562835887,0
34,21,2,0,21,female,0.451293437,1
34,22,5,1,21,female,0.643161061,1
34,23,2,1,21,female,0.489303088,1
34,24,40,1,21,female,0.724016319,1
34,25,1,0,21,female,0.56149649,0
34,26,2,0,21,female,0.388471889,0
34,27,2,0,21,female,0.331222256,1
34,28,40,0,21,female,0.717323561,1
34,29,80,1,21,female,0.580798355,0
34,30,80,0,21,female,0.837011065,1
34,31,10,0,21,female,0.449421542,0
34,32,80,0,21,female,0.503015228,1
34,33,1,0,21,female,0.37953986,0
34,34,1,0,21,female,0.510673668,0
34,35,5,0,21,female,0.472745824,0
34,36,20,1,21,female,0.721184175,1
34,37,5,0,21,female,0.354895198,0
34,38,20,0,21,female,0.325338208,1
34,39,5,0,21,female,0.523422843,1
34,40,5,1,21,female,0.884540486,0
34,41,10,0,21,female,0.598669659,1
34,42,1,0,21,female,0.528557348,1
34,43,5,1,21,female,0.543278338,0
34,44,80,0,21,female,0.583476847,0
34,45,40,0,21,female,0.47530719,0
34,46,1,0,21,female,1.065752101,1
34,47,40,1,21,female,0.367403481,0
34,48,40,1,21,female,0.355212765,0
34,49,10,1,21,female,0.320557493,0
34,50,10,1,21,female,0.405540521,1
34,51,2,0,21,female,0.276780014,0
34,52,20,1,21,female,0.602846332,1
34,53,40,0,21,female,0.514574129,0
34,54,40,0,21,female,0.690784666,1
34,55,80,0,21,female,0.330802053,0
34,56,2,0,21,female,0.411622898,0
34,57,20,0,21,female,0.250917307,1
34,58,20,0,21,female,0.567465666,0
34,59,20,0,21,female,0.458770755,0
34,60,2,1,21,female,0.471208099,1
34,61,40,0,21,female,0.478910914,0
34,62,1,1,21,female,0.327041961,0
34,63,10,0,21,female,0.314748308,0
34,64,40,1,21,female,1.248059806,1
34,65,10,0,21,female,0.424794087,1
34,66,1,1,21,female,0.382659384,0
34,67,2,0,21,female,0.323378468,1
34,68,5,0,21,female,0.343477874,1
34,69,5,0,21,female,0.350932854,0
34,70,80,0,21,female,0.64706273,1
35,1,10,1,19,female,3.113321671,0
35,2,1,1,19,female,1.8004036,1
35,3,40,1,19,female,1.375922854,0
35,4,20,1,19,female,1.150947041,1
35,5,20,1,19,female,1.524487538,0
35,6,20,1,19,female,1.092924622,0
35,7,2,1,19,female,1.375188706,1
35,8,1,1,19,female,2.02928893,0
35,9,1,1,19,female,1.138663048,0
35,10,40,1,19,female,1.739507077,0
35,11,1,1,19,female,1.785193884,1
35,12,5,1,19,female,1.290824512,0
35,13,40,1,19,female,1.608782,0
35,14,80,1,19,female,1.334882127,1
35,15,1,1,19,female,1.239282938,0
35,16,20,1,19,female,1.555191031,0
35,17,80,1,19,female,1.515346011,1
35,18,10,1,19,female,1.453269176,0
35,19,1,1,19,female,1.164579488,1
35,20,1,1,19,female,1.324730543,0
35,21,40,1,19,female,1.157191825,0
35,22,5,1,19,female,1.798904212,1
35,23,2,1,19,female,1.057467281,0
35,24,10,1,19,female,1.073199836,0
35,25,1,1,19,female,1.248762258,1
35,26,2,1,19,female,1.34128177,1
35,27,20,1,19,female,1.356772226,1
35,28,20,1,19,female,0.956678042,0
35,29,80,1,19,female,1.119524796,0
35,30,1,1,19,female,1.105015418,0
35,31,2,1,19,female,0.990684898,1
35,32,20,1,19,female,1.239237054,1
35,33,2,1,19,female,1.201026358,0
35,34,2,1,19,female,1.108768567,0
35,35,5,1,19,female,1.207257557,1
35,36,20,1,19,female,1.699511122,0
35,37,5,1,19,female,1.105309137,1
35,38,5,1,19,female,1.196590983,0
35,39,5,1,19,female,1.471384692,0
35,40,10,1,19,female,1.95641934,1
35,41,80,1,19,female,2.017310731,1
35,42,2,1,19,female,1.814814569,0
35,43,20,1,19,female,1.036541959,1
35,44,2,1,19,female,2.08946006,1
35,45,80,1,19,female,1.350855877,0
35,46,20,1,19,female,1.15311809,1
35,47,10,1,19,female,1.712768947,1
35,48,40,1,19,female,1.469319298,1
35,49,1,1,19,female,1.332828506,1
35,50,5,1,19,female,1.526661002,0
35,51,80,1,19,female,1.978431393,0
35,52,10,1,19,female,1.020883966,0
35,53,40,1,19,female,1.455669646,0
35,54,2,1,19,female,1.151278797,1
35,55,5,1,19,female,1.392895491,1
35,56,2,1,19,female,1.117164777,0
35,57,80,1,19,female,1.029519257,0
35,58,10,1,19,female,1.074998076,1
35,59,40,1,19,female,1.458999573,1
35,60,40,1,19,female,1.565450081,1
35,61,80,1,19,female,2.028272232,1
35,62,5,1,19,female,5.075152029,0
35,63,80,1,19,female,1.0826378,1
35,64,40,1,19,female,2.107262236,1
35,65,10,1,19,female,1.023068297,0
35,66,40,1,19,female,1.012932108,1
35,67,10,1,19,female,2.445664469,1
35,68,80,1,19,female,1.901615457,0
35,69,10,1,19,female,1.494662487,1
35,70,5,1,19,female,1.371638112,1
36,1,40,1,21,female,5.061933749,0
36,2,5,1,21,female,1.377024076,1
36,3,10,1,21,female,3.358012307,0
36,4,2,0,21,female,2.117614865,1
36,5,5,1,21,female,1.878918159,0
36,6,10,1,21,female,1.969492119,0
36,7,40,0,21,female,8.459723155,1
36,8,5,1,21,female,1.549046468,0
36,9,20,1,21,female,2.509281746,0
36,10,1,1,21,female,1.762729327,0
36,11,20,1,21,female,1.035196223,1
36,12,2,1,21,female,1.518555492,0
36,13,10,1,21,female,1.548721958,0
36,14,40,0,21,female,3.322825744,1
36,15,40,0,21,female,1.991312183,0
36,16,2,1,21,female,1.556745661,0
36,17,1,1,21,female,2.382936198,1
36,18,80,1,21,female,2.119478007,0
36,19,80,1,21,female,2.112602919,1
36,20,2,1,21,female,1.155508598,0
36,21,10,1,21,female,0.986648595,0
36,22,40,1,21,female,0.906592387,1
36,23,80,1,21,female,1.173081654,0
36,24,1,1,21,female,0.707257708,0
36,25,5,1,21,female,0.81126639,1
36,26,5,1,21,female,0.894849948,1
36,27,80,1,21,female,2.387419872,1
36,28,20,1,21,female,0.99692304,0
36,29,2,1,21,female,0.851496596,0
36,30,20,1,21,female,0.700839349,0
36,31,1,1,21,female,1.492722369,1
36,32,80,0,21,female,3.795260038,1
36,33,40,1,21,female,1.544681731,0
36,34,20,1,21,female,1.181230331,0
36,35,5,1,21,female,1.209393287,1
36,36,10,1,21,female,1.241792081,0
36,37,5,1,21,female,2.601425128,1
36,38,20,1,21,female,1.491315051,0
36,39,2,1,21,female,1.348741882,0
36,40,20,1,21,female,0.843170117,1
36,41,1,1,21,female,0.688553545,1
36,42,80,1,21,female,1.885082644,0
36,43,1,1,21,female,0.920922454,1
36,44,2,1,21,female,0.590977108,1
36,45,80,1,21,female,1.108909842,0
36,46,20,1,21,female,1.428794769,1
36,47,10,1,21,female,1.205177069,1
36,48,40,1,21,female,1.833152262,1
36,49,1,1,21,female,1.193219398,1
36,50,2,1,21,female,1.493004617,0
36,51,20,1,21,female,0.958795962,0
36,52,80,1,21,female,0.805181597,0
36,53,5,1,21,female,1.377500426,0
36,54,80,1,21,female,0.927308814,1
36,55,10,1,21,female,1.145111594,1
36,56,40,1,21,female,1.493196606,0
36,57,2,1,21,female,1.043849023,0
36,58,10,1,21,female,1.492960242,1
36,59,5,1,21,female,1.019181117,1
36,60,40,1,21,female,0.966931054,1
36,61,10,1,21,female,1.017427857,1
36,62,5,1,21,female,1.581450998,0
36,63,1,1,21,female,1.017534115,1
36,64,2,1,21,female,1.229023587,1
36,65,80,1,21,female,1.127088751,0
36,66,1,1,21,female,1.283326365,1
36,67,40,1,21,female,1.049496707,1
36,68,1,1,21,female,1.207026928,0
36,69,10,1,21,female,1.429149466,1
36,70,20,1,21,female,0.9967875,1
37,1,5,1,22,male,4.315685011,0
37,2,5,1,22,male,4.631266178,0
37,3,2,0,22,male,1.708536731,1
37,4,40,1,22,male,3.139297277,1
37,5,1,1,22,male,2.679107431,0
37,6,80,0,22,male,2.275568272,0
37,7,5,1,22,male,1.388782815,1
37,8,40,1,22,male,5.839192679,1
37,9,5,0,22,male,1.491907308,1
37,10,20,1,22,male,2.755168692,0
37,11,2,0,22,male,1.700804634,1
37,12,10,1,22,male,3.610339045,1
37,13,80,0,22,male,2.706727624,1
37,14,10,0,22,male,4.499656321,0
37,15,80,1,22,male,1.889163926,1
37,16,10,0,22,male,1.165311824,0
37,17,40,1,22,male,1.870928265,1
37,18,2,0,22,male,1.697150499,1
37,19,10,0,22,male,2.608611745,1
37,20,10,0,22,male,3.765287976,0
37,21,40,1,22,male,1.450825539,0
37,22,5,0,22,male,1.538657916,0
37,23,1,0,22,male,1.533124942,0
37,24,10,1,22,male,1.568511645,0
37,25,80,1,22,male,1.449063826,1
37,26,80,1,22,male,1.946634528,0
37,27,2,0,22,male,1.279371567,0
37,28,1,0,22,male,1.435145811,1
37,29,10,0,22,male,2.382680816,1
37,30,5,0,22,male,2.361400797,1
37,31,20,1,22,male,0.837507037,0
37,32,10,1,22,male,2.41933658,1
37,33,80,0,22,male,1.240771459,1
37,34,2,0,22,male,1.240423101,0
37,35,20,1,22,male,3.751561347,1
37,36,1,0,22,male,1.300875272,1
37,37,40,0,22,male,2.649175518,0
37,38,80,1,22,male,1.309608671,0
37,39,1,0,22,male,2.46692879,0
37,40,5,1,22,male,1.330760697,1
37,41,40,1,22,male,2.221015279,1
37,42,20,1,22,male,1.261468567,1
37,43,20,1,22,male,1.281522089,1
37,44,2,0,22,male,1.680919556,1
37,45,5,0,22,male,5.842015767,1
37,46,5,0,22,male,1.832771302,0
37,47,40,1,22,male,1.487180037,0
37,48,10,1,22,male,1.57260319,0
37,49,2,1,22,male,1.390844285,0
37,50,10,1,22,male,2.992771724,1
37,51,40,1,22,male,1.82702068,0
37,52,1,0,22,male,3.699205629,1
37,53,2,0,22,male,2.212991274,0
37,54,20,1,22,male,1.798700148,1
37,55,2,0,22,male,3.790789948,1
37,56,80,1,22,male,2.772696468,0
37,57,1,0,22,male,1.713369367,0
37,58,40,1,22,male,1.272919399,0
37,59,80,1,22,male,1.4525305,1
37,60,1,0,22,male,3.563284768,1
37,61,40,1,22,male,1.731379832,1
37,62,20,0,22,male,5.682998534,0
37,63,1,0,22,male,1.049429692,0
37,64,80,1,22,male,0.841425309,0
37,65,2,1,22,male,1.151326492,0
37,66,1,1,22,male,1.929808297,1
37,67,20,1,22,male,6.181378549,0
37,68,20,1,22,male,2.45702474,1
37,69,20,1,22,male,1.707163826,0
37,70,5,1,22,male,1.13690846,0
38,1,40,1,20,male,8.79491319,1
38,2,1,1,20,male,11.96545159,0
38,3,5,1,20,male,3.572146763,0
38,4,5,0,20,male,2.723334395,0
38,5,80,1,20,male,3.40522718,0
38,6,80,1,20,male,4.307125187,1
38,7,80,0,20,male,2.876835558,0
38,8,5,1,20,male,2.589391385,1
38,9,40,0,20,male,9.403004511,1
38,10,2,0,20,male,3.730713907,0
38,11,2,1,20,male,1.576752996,1
38,12,40,0,20,male,8.909305594,0
38,13,5,1,20,male,1.841271054,1
38,14,20,1,20,male,4.80101217,1
38,15,80,0,20,male,2.661206846,0
38,16,20,0,20,male,1.066996107,0
38,17,2,0,20,male,1.811112436,1
38,18,80,1,20,male,2.896820555,1
38,19,5,0,20,male,1.991083366,1
38,20,10,0,20,male,1.122919626,1
38,21,40,1,20,male,3.991029331,1
38,22,1,1,20,male,3.340925563,1
38,23,5,0,20,male,0.940999522,0
38,24,40,0,20,male,2.199251664,0
38,25,10,1,20,male,1.047392976,1
38,26,1,0,20,male,1.090975447,0
38,27,1,1,20,male,0.564700236,0
38,28,20,0,20,male,0.527054942,1
38,29,2,1,20,male,2.913322879,1
38,30,1,0,20,male,2.90272664,1
38,31,1,0,20,male,3.040898244,0
38,32,2,0,20,male,2.782240086,1
38,33,20,0,20,male,2.10558565,0
38,34,40,1,20,male,2.233354213,1
38,35,80,0,20,male,1.831184975,0
38,36,80,1,20,male,1.95742185,1
38,37,1,0,20,male,6.365633919,1
38,38,5,0,20,male,0.921452538,0
38,39,1,0,20,male,0.818612394,0
38,40,1,1,20,male,2.075427938,1
38,41,40,1,20,male,2.376918723,0
38,42,2,0,20,male,0.786749117,0
38,43,10,0,20,male,0.929137241,1
38,44,10,0,20,male,1.354824863,0
38,45,1,0,20,male,0.9688594,1
38,46,40,0,20,male,4.795409766,0
38,47,10,0,20,male,2.903412187,0
38,48,20,0,20,male,2.188053196,1
38,49,20,0,20,male,2.780056963,0
38,50,5,0,20,male,2.308790603,0
38,51,10,1,20,male,2.210647858,0
38,52,80,0,20,male,2.885943276,1
38,53,20,0,20,male,2.498875082,0
38,54,2,1,20,male,1.096713995,0
38,55,2,0,20,male,1.447529119,0
38,56,40,0,20,male,2.406998854,0
38,57,10,0,20,male,1.403055527,0
38,58,10,1,20,male,2.684067758,0
38,59,40,1,20,male,1.719013127,1
38,60,20,1,20,male,0.755210049,1
38,61,5,0,20,male,3.069134252,1
38,62,20,1,20,male,4.803501389,0
38,63,2,0,20,male,1.931530164,0
38,64,20,0,20,male,1.234623576,1
38,65,80,1,20,male,4.965391216,0
38,66,80,0,20,male,0.783481375,1
38,67,10,1,20,male,2.05300021,1
38,68,5,1,20,male,2.475425523,1
38,69,10,0,20,male,2.305385209,1
38,70,2,0,20,male,3.071893947,1
39,1,5,0,22,male,5.835699138,0
39,2,40,0,22,male,3.907463281,1
39,3,20,1,22,male,1.71420132,1
39,4,1,1,22,male,4.524202875,0
39,5,20,0,22,male,3.434614218,1
39,6,80,0,22,male,3.827215989,0
39,7,1,0,22,male,3.841033482,0
39,8,2,0,22,male,0.979075584,0
39,9,1,0,22,male,2.016524058,0
39,10,2,1,22,male,1.104567443,1
39,11,5,1,22,male,1.297459312,1
39,12,20,1,22,male,1.160974255,1
39,13,20,1,22,male,1.195486139,0
39,14,40,1,22,male,1.645272943,0
39,15,2,0,22,male,2.821456009,1
39,16,10,0,22,male,1.823182102,0
39,17,80,1,22,male,2.183597293,0
39,18,5,0,22,male,1.657278311,1
39,19,40,1,22,male,2.747230721,0
39,20,2,0,22,male,1.866684879,1
39,21,20,0,22,male,2.8551779,0
39,22,20,1,22,male,0.974557195,0
39,23,10,1,22,male,1.003223065,0
39,24,10,1,22,male,0.640440911,1
39,25,20,1,22,male,0.717366426,1
39,26,5,1,22,male,1.050501934,0
39,27,2,1,22,male,0.832620367,0
39,28,40,1,22,male,1.304174408,0
39,29,40,1,22,male,1.314824078,1
39,30,1,1,22,male,1.00461861,1
39,31,20,1,22,male,1.202709283,0
39,32,5,1,22,male,1.280880615,0
39,33,80,1,22,male,1.845284716,0
39,34,2,1,22,male,1.431538465,1
39,35,5,1,22,male,1.467008484,1
39,36,80,1,22,male,0.684760851,1
39,37,40,1,22,male,0.684633764,1
39,38,2,1,22,male,0.998802482,0
39,39,1,1,22,male,1.199176499,1
39,40,10,1,22,male,1.500493708,1
39,41,5,1,22,male,0.91507463,1
39,42,80,1,22,male,1.470603755,1
39,43,80,1,22,male,0.657472111,1
39,44,80,0,22,male,0.794940358,0
39,45,40,0,22,male,1.077063168,1
39,46,5,0,22,male,1.23454509,0
39,47,1,0,22,male,0.614956448,0
39,48,2,0,22,male,0.789378103,0
39,49,10,0,22,male,0.770888871,0
39,50,10,0,22,male,0.706745435,1
39,51,20,0,22,male,1.634648027,0
39,52,80,0,22,male,0.640718632,1
39,53,10,0,22,male,0.762922825,1
39,54,2,0,22,male,0.805168013,0
39,55,1,0,22,male,1.413284994,1
39,56,20,0,22,male,0.809410795,1
39,57,1,0,22,male,0.559467924,1
39,58,80,0,22,male,0.806872069,0
39,59,40,0,22,male,0.846711957,1
39,60,80,0,22,male,0.8127048,1
39,61,2,0,22,male,0.69334241,1
39,62,10,0,22,male,0.902746865,0
39,63,10,0,22,male,1.071311942,1
39,64,1,0,22,male,0.891259507,0
39,65,10,0,22,male,1.220677185,0
39,66,1,0,22,male,0.97460489,1
39,67,5,0,22,male,0.652951609,1
39,68,5,0,22,male,1.771211268,0
39,69,40,0,22,male,1.770985168,0
39,70,40,0,22,male,1.30577281,0
40,1,20,1,22,female,18.02086857,1
40,2,20,1,22,female,6.648861271,0
40,3,1,1,22,female,25.21499418,0
40,4,1,0,22,female,4.537596844,0
40,5,10,1,22,female,1.995328865,1
40,6,20,1,22,female,13.60399283,0
40,7,80,1,22,female,4.64105099,0
40,8,1,0,22,female,4.790913111,1
40,9,40,1,22,female,4.92158536,0
40,10,40,0,22,female,7.993117969,0
40,11,20,0,22,female,4.259543241,1
40,12,5,0,22,female,2.060681592,1
40,13,40,1,22,female,2.489652955,1
40,14,1,0,22,female,2.089624579,1
40,15,2,0,22,female,1.859375703,1
40,16,10,0,22,female,1.745197023,0
40,17,2,0,22,female,1.220770764,0
40,18,80,1,22,female,1.498879912,1
40,19,20,0,22,female,2.057164807,1
40,20,10,0,22,female,3.412690914,1
40,21,80,1,22,female,2.014621372,1
40,22,80,1,22,female,1.52354027,0
40,23,10,0,22,female,1.769191456,1
40,24,1,0,22,female,2.210780681,0
40,25,5,0,22,female,2.082883824,1
40,26,20,0,22,female,3.199471728,0
40,27,80,1,22,female,1.801464371,1
40,28,5,0,22,female,2.189356368,0
40,29,80,1,22,female,1.650499821,0
40,30,2,0,22,female,2.069411067,1
40,31,40,0,22,female,4.151372376,1
40,32,5,0,22,female,1.701019868,1
40,33,2,0,22,female,1.894935981,0
40,34,1,0,22,female,1.524780352,1
40,35,20,0,22,female,2.439289277,1
40,36,10,0,22,female,1.851942156,1
40,37,5,0,22,female,2.41962547,0
40,38,40,0,22,female,2.265410988,0
40,39,40,0,22,female,1.823546157,1
40,40,5,0,22,female,2.082951141,0
40,41,2,0,22,female,1.367100102,1
40,42,20,0,22,female,1.732550786,0
40,43,5,0,22,female,3.900761165,1
40,44,40,0,22,female,2.308904106,1
40,45,1,0,22,female,2.133122527,0
40,46,5,0,22,female,2.087233468,0
40,47,10,0,22,female,1.668653071,0
40,48,10,0,22,female,3.95700708,0
40,49,80,1,22,female,1.917009012,0
40,50,80,0,22,female,4.350811502,0
40,51,10,0,22,female,1.772905362,0
40,52,1,0,22,female,1.614850189,0
40,53,20,0,22,female,2.898651094,1
40,54,2,0,22,female,1.701434335,0
40,55,5,0,22,female,1.450851198,0
40,56,40,0,22,female,2.10337234,0
40,57,80,1,22,female,2.280851334,1
40,58,40,0,22,female,2.017679013,1
40,59,20,0,22,female,3.081302629,0
40,60,10,0,22,female,1.815364576,1
40,61,1,0,22,female,1.813320916,1
40,62,2,0,22,female,1.937417533,0
40,63,40,0,22,female,1.74291066,0
40,64,5,0,22,female,5.554841465,1
40,65,1,0,22,female,2.345642885,1
40,66,2,0,22,female,1.656687249,1
40,67,80,1,22,female,2.906899086,1
40,68,2,0,22,female,1.423337866,1
40,69,2,1,22,female,2.662880111,0
40,70,10,0,22,female,1.551212687,0
41,1,20,1,23,male,3.605706851,0
41,2,2,0,23,male,2.314869056,1
41,3,5,1,23,male,3.877918969,1
41,4,80,0,23,male,5.508170864,0
41,5,10,1,23,male,2.145091972,0
41,6,80,1,23,male,1.638983483,1
41,7,40,1,23,male,1.596911569,0
41,8,20,0,23,male,1.592778064,1
41,9,5,0,23,male,2.550882441,0
41,10,1,0,23,male,1.485437643,1
41,11,5,0,23,male,1.356605291,0
41,12,40,1,23,male,2.745564097,0
41,13,2,0,23,male,1.920923963,1
41,14,10,0,23,male,2.353428714,1
41,15,40,1,23,male,2.132772358,0
41,16,20,1,23,male,2.167059047,1
41,17,80,1,23,male,2.411787115,1
41,18,80,1,23,male,1.966940412,1
41,19,2,0,23,male,1.238552413,0
41,20,2,0,23,male,1.874684131,1
41,21,2,0,23,male,1.720810159,1
41,22,80,1,23,male,2.599364866,0
41,23,10,0,23,male,1.263106513,0
41,24,80,1,23,male,2.156712757,0
41,25,40,1,23,male,2.43456773,1
41,26,40,1,23,male,1.532736134,1
41,27,80,1,23,male,1.511296728,0
41,28,1,0,23,male,1.718948225,1
41,29,10,0,23,male,1.251338416,0
41,30,10,0,23,male,1.152546952,1
41,31,2,0,23,male,1.543204078,1
41,32,5,0,23,male,1.694983073,0
41,33,2,0,23,male,1.318808761,0
41,34,5,0,23,male,0.923217571,0
41,35,80,1,23,male,1.415156889,1
41,36,20,1,23,male,1.26751955,0
41,37,80,1,23,male,1.07955933,1
41,38,20,1,23,male,1.547097294,1
41,39,40,1,23,male,1.436913863,1
41,40,1,0,23,male,1.494771462,1
41,41,5,0,23,male,1.075141464,0
41,42,5,0,23,male,1.567299336,1
41,43,40,1,23,male,1.184785152,1
41,44,10,0,23,male,1.184958425,0
41,45,1,0,23,male,1.062944711,0
41,46,1,0,23,male,0.857361023,0
41,47,20,1,23,male,1.297529346,0
41,48,5,0,23,male,1.116941092,1
41,49,2,0,23,male,3.143033823,0
41,50,5,0,23,male,0.967342503,1
41,51,2,0,23,male,2.354652495,0
41,52,80,1,23,male,1.100909987,0
41,53,1,0,23,male,1.381475752,0
41,54,1,0,23,male,1.134620708,1
41,55,10,1,23,male,1.446798896,1
41,56,10,1,23,male,1.060732306,0
41,57,10,1,23,male,1.513353367,1
41,58,5,1,23,male,1.313250732,1
41,59,40,1,23,male,1.997138575,0
41,60,40,1,23,male,0.875255571,1
41,61,1,0,23,male,2.411137491,1
41,62,20,1,23,male,3.282684892,1
41,63,2,0,23,male,2.119302922,0
41,64,1,0,23,male,0.948868365,0
41,65,20,1,23,male,0.843236227,0
41,66,20,1,23,male,0.907334685,0
41,67,40,1,23,male,1.826803635,0
41,68,1,0,23,male,1.071538646,0
41,69,10,1,23,male,1.039277203,1
41,70,20,1,23,male,0.965242998,1
42,1,2,1,26,male,3.972983245,0
42,2,10,0,26,male,2.664936449,0
42,3,2,0,26,male,1.869483817,1
42,4,40,1,26,male,2.711485698,1
42,5,2,0,26,male,1.898983151,1
42,6,20,0,26,male,2.875948664,0
42,7,80,0,26,male,4.35080637,1
42,8,5,0,26,male,3.498745278,1
42,9,40,1,26,male,6.631511901,0
42,10,5,0,26,male,2.850802597,0
42,11,5,1,26,male,2.192915716,0
42,12,10,0,26,male,3.854887199,1
42,13,2,0,26,male,2.830873144,0
42,14,10,0,26,male,3.338626522,1
42,15,5,0,26,male,3.815295448,0
42,16,5,1,26,male,1.433054456,0
42,17,5,1,26,male,6.283432925,1
42,18,10,1,26,male,2.295185024,1
42,19,2,0,26,male,2.961201865,1
42,20,40,1,26,male,4.408820639,1
42,21,1,1,26,male,3.813051045,0
42,22,2,0,26,male,2.469126404,0
42,23,40,1,26,male,3.777317795,1
42,24,2,1,26,male,3.965193491,1
42,25,5,1,26,male,3.809332913,0
42,26,40,1,26,male,2.570129668,0
42,27,80,0,26,male,5.687481303,0
42,28,20,0,26,male,2.151587006,1
42,29,80,0,26,male,2.212810454,1
42,30,20,1,26,male,2.713358197,0
42,31,1,1,26,male,4.485197959,1
42,32,40,0,26,male,2.536549657,0
42,33,40,1,26,male,4.349092956,0
42,34,20,0,26,male,3.549127369,1
42,35,5,1,26,male,3.868996599,1
42,36,80,0,26,male,2.796835497,1
42,37,10,1,26,male,2.45894101,1
42,38,1,1,26,male,1.812916713,0
42,39,80,0,26,male,1.836934088,1
42,40,1,1,26,male,3.263241751,0
42,41,80,0,26,male,3.713379932,1
42,42,1,0,26,male,2.064537075,0
42,43,2,1,26,male,1.516682389,1
42,44,20,1,26,male,1.845099066,1
42,45,2,0,26,male,1.319165873,0
42,46,40,0,26,male,1.395295659,1
42,47,20,1,26,male,1.899501462,0
42,48,10,1,26,male,1.642606526,0
42,49,20,0,26,male,1.556494203,0
42,50,1,1,26,male,1.63103404,1
42,51,10,1,26,male,1.541501833,1
42,52,5,1,26,male,1.460700912,1
42,53,1,1,26,male,2.203268044,1
42,54,80,0,26,male,1.20265887,0
42,55,1,1,26,male,1.113508529,0
42,56,5,1,26,male,0.959214957,1
42,57,40,0,26,male,1.399094692,0
42,58,20,1,26,male,1.227543216,0
42,59,2,1,26,male,0.969020598,0
42,60,10,0,26,male,1.169385257,0
42,61,80,1,26,male,1.934601388,0
42,62,80,0,26,male,1.225107428,0
42,63,40,1,26,male,1.43929622,1
42,64,10,1,26,male,1.754780186,0
42,65,10,0,26,male,1.269355523,0
42,66,1,0,26,male,1.144561587,1
42,67,20,0,26,male,1.25899112,1
42,68,20,1,26,male,1.559488149,1
42,69,80,1,26,male,2.197281359,0
42,70,1,1,26,male,1.3174268,1
43,1,1,1,60,female,3.385078871,0
43,2,20,1,60,female,2.183583407,1
43,3,40,1,60,female,2.014031518,1
43,4,5,1,60,female,1.780877143,0
43,5,5,1,60,female,1.198495782,0
43,6,1,1,60,female,1.510977953,1
43,7,2,1,60,female,1.854763432,1
43,8,2,1,60,female,1.611273635,0
43,9,80,1,60,female,1.621159573,1
43,10,20,0,60,female,0.777224819,0
43,11,5,0,60,female,1.633333384,1
43,12,40,0,60,female,1.314526434,0
43,13,10,1,60,female,1.632931293,0
43,14,1,1,60,female,3.439321276,1
43,15,5,1,60,female,3.129092262,0
43,16,5,1,60,female,0.895175968,1
43,17,40,1,60,female,3.111106248,0
43,18,2,1,60,female,2.104580725,1
43,19,10,1,60,female,2.352729282,1
43,20,1,1,60,female,1.488976465,0
43,21,80,1,60,female,2.385545562,0
43,22,20,1,60,female,1.763308313,0
43,23,10,1,60,female,1.296731201,1
43,24,5,1,60,female,1.042701917,0
43,25,2,1,60,female,0.878802844,0
43,26,2,1,60,female,1.155241745,0
43,27,40,1,60,female,2.063447928,0
43,28,5,1,60,female,1.009526411,1
43,29,40,1,60,female,1.659340384,1
43,30,80,1,60,female,2.767308392,0
43,31,2,1,60,female,1.720978602,1
43,32,10,1,60,female,1.611078325,1
43,33,20,1,60,female,2.139373952,0
43,34,1,1,60,female,0.939380895,1
43,35,10,1,60,female,1.059271558,0
43,36,5,1,60,female,1.717521588,0
43,37,1,1,60,female,1.150640945,0
43,38,20,1,60,female,2.169719125,0
43,39,10,1,60,female,1.140811758,0
43,40,20,1,60,female,1.439429949,0
43,41,20,1,60,female,1.123476878,1
43,42,40,1,60,female,1.697236532,0
43,43,10,1,60,female,1.462973389,0
43,44,2,1,60,female,1.654944252,1
43,45,2,1,60,female,3.121137989,0
43,46,80,1,60,female,3.466694841,1
43,47,40,1,60,female,1.703458071,1
43,48,40,1,60,female,1.242869757,1
43,49,10,1,60,female,1.503331588,1
43,50,1,1,60,female,1.180950498,1
43,51,2,1,60,female,1.501424071,1
43,52,1,1,60,female,2.387308784,0
43,53,20,1,60,female,1.806636007,1
43,54,80,1,60,female,1.887096117,0
43,55,80,1,60,female,2.09897651,1
43,56,80,1,60,female,1.844787234,0
43,57,80,1,60,female,1.455285063,1
43,58,40,1,60,female,2.063217903,0
43,59,20,1,60,female,1.381313949,1
43,60,10,1,60,female,1.803087828,1
43,61,5,1,60,female,0.976647644,1
43,62,1,1,60,female,1.806856674,1
43,63,2,1,60,female,1.554937762,0
43,64,10,1,60,female,1.541367501,0
43,65,20,1,60,female,1.031258933,1
