PID,trial_no,outcome,delay,choice,rt,age,gender
1,1,0,1,0,3.121508175,18,female
1,11,1,1,1,1.464458536,18,female
1,16,0,1,1,1.583626602,18,female
1,26,0,1,1,1.240480628,18,female
1,28,1,1,1,1.201810566,18,female
1,35,1,1,1,0.754504378,18,female
1,39,0,1,1,0.705900927,18,female
1,45,1,1,1,1.195922559,18,female
1,52,1,1,1,0.812155527,18,female
1,62,0,1,1,1.06021102,18,female
1,9,0,2,1,1.464042858,18,female
1,21,0,2,1,1.088077699,18,female
1,22,0,2,1,1.239754928,18,female
1,32,1,2,1,1.139741223,18,female
1,40,1,2,1,0.740070988,18,female
1,51,0,2,1,1.148602666,18,female
1,55,0,2,1,0.992246728,18,female
1,56,1,2,1,0.768116073,18,female
1,60,1,2,1,1.112156493,18,female
1,67,1,2,1,0.673903134,18,female
1,3,1,5,1,1.499127893,18,female
1,14,1,5,1,0.912508837,18,female
1,20,0,5,1,1.521674989,18,female
1,33,0,5,1,0.832462132,18,female
1,36,0,5,1,0.640516128,18,female
1,42,0,5,1,1.107993984,18,female
1,43,1,5,1,1.030022949,18,female
1,57,1,5,1,0.712211554,18,female
1,61,0,5,1,1.130215361,18,female
1,68,1,5,1,1.028285979,18,female
1,10,0,10,0,2.143734985,18,female
1,27,0,10,1,1.269683995,18,female
1,47,0,10,1,0.99793067,18,female
1,48,1,10,1,0.99596941,18,female
1,49,1,10,1,1.118531116,18,female
1,54,0,10,1,0.950403693,18,female
1,64,1,10,1,1.076156184,18,female
1,65,0,10,1,0.706336528,18,female
1,69,1,10,1,1.247874673,18,female
1,70,1,10,1,1.182689109,18,female
1,4,1,20,1,1.860642456,18,female
1,13,0,20,1,1.471549803,18,female
1,15,0,20,1,2.361690252,18,female
1,17,0,20,0,2.948214822,18,female
1,19,0,20,1,2.738280587,18,female
1,30,1,20,1,0.912159572,18,female
1,41,0,20,0,0.79978392,18,female
1,44,1,20,1,1.259833017,18,female
1,58,1,20,1,1.231662957,18,female
1,66,1,20,1,0.810087404,18,female
1,2,0,40,1,2.554022953,18,female
1,18,0,40,0,1.907816242,18,female
1,24,0,40,1,1.677876973,18,female
1,25,0,40,1,1.784664376,18,female
1,31,1,40,1,0.918205759,18,female
1,34,0,40,1,0.92023977,18,female
1,37,1,40,0,1.444008844,18,female
1,38,1,40,1,1.19572121,18,female
1,46,1,40,0,2.17109935,18,female
1,50,1,40,1,1.219864001,18,female
1,5,1,80,1,1.618043594,18,female
1,6,1,80,1,2.057997697,18,female
1,7,0,80,1,1.372547066,18,female
1,8,1,80,0,2.355876204,18,female
1,12,0,80,1,1.785552181,18,female
1,23,1,80,0,1.80601425,18,female
1,29,0,80,1,4.305991006,18,female
1,53,1,80,1,1.270555498,18,female
1,59,0,80,0,1.495809115,18,female
1,63,0,80,1,1.350556017,18,female
2,6,1,1,1,1.067705286,17,female
2,11,1,1,0,1.854194477,17,female
2,29,0,1,0,1.731049252,17,female
2,42,0,1,0,2.042227922,17,female
2,46,0,1,0,1.382694785,17,female
2,48,1,1,0,1.90450622,17,female
2,66,1,1,0,1.76673018,17,female
2,67,1,1,1,0.966731026,17,female
2,69,0,1,0,1.092286394,17,female
2,70,0,1,0,1.454651027,17,female
2,1,1,2,1,2.964853384,17,female
2,3,0,2,1,1.12151059,17,female
2,14,1,2,0,1.98373274,17,female
2,15,0,2,0,1.066451613,17,female
2,32,0,2,0,1.970037124,17,female
2,36,0,2,0,1.712430713,17,female
2,47,1,2,0,1.505966191,17,female
2,56,0,2,0,1.903799236,17,female
2,60,1,2,0,1.18669404,17,female
2,68,1,2,1,1.212565952,17,female
2,4,1,5,0,2.584848276,17,female
2,12,0,5,0,0.978301465,17,female
2,24,0,5,0,1.878970594,17,female
2,25,1,5,0,1.508211211,17,female
2,34,0,5,0,1.398053713,17,female
2,41,0,5,0,1.23042317,17,female
2,43,0,5,0,1.622208215,17,female
2,49,1,5,0,1.794293176,17,female
2,59,1,5,0,1.387833244,17,female
2,63,1,5,0,0.887768643,17,female
2,8,1,10,0,1.900347636,17,female
2,20,0,10,0,2.622075995,17,female
2,21,1,10,0,1.083701767,17,female
2,31,1,10,1,0.826376701,17,female
2,33,1,10,0,1.570285383,17,female
2,35,0,10,0,1.195931011,17,female
2,44,0,10,0,2.850742876,17,female
2,52,0,10,0,1.620221296,17,female
2,55,1,10,0,2.669938653,17,female
2,57,0,10,0,0.929731824,17,female
2,7,0,20,0,6.678543807,17,female
2,13,0,20,1,1.680051656,17,female
2,17,1,20,0,3.35424821,17,female
2,18,0,20,0,1.858310799,17,female
2,50,1,20,1,2.916224877,17,female
2,51,1,20,1,1.612339729,17,female
2,53,0,20,1,0.964629093,17,female
2,58,0,20,1,0.97612165,17,female
2,62,1,20,1,1.490045782,17,female
2,64,1,20,1,2.906130893,17,female
2,9,1,40,1,3.545643599,17,female
2,10,0,40,1,2.267965439,17,female
2,22,1,40,1,3.920384669,17,female
2,23,0,40,1,4.038412264,17,female
2,26,0,40,1,2.158408967,17,female
2,28,1,40,1,1.638547623,17,female
2,30,0,40,1,1.470101724,17,female
2,38,1,40,1,1.72975392,17,female
2,45,0,40,1,1.314085996,17,female
2,61,1,40,1,1.799838861,17,female
2,2,0,80,0,1.992302876,17,female
2,5,0,80,1,1.466341008,17,female
2,16,0,80,1,2.107714149,17,female
2,19,0,80,1,1.882298728,17,female
2,27,1,80,1,3.492407928,17,female
2,37,0,80,1,1.740335729,17,female
2,39,1,80,1,1.792146567,17,female
2,40,1,80,1,1.571981902,17,female
2,54,1,80,1,1.298270336,17,female
2,65,1,80,1,2.870500376,17,female
3,1,1,1,0,7.994501709,17,female
3,3,1,1,0,2.392929139,17,female
3,18,1,1,1,1.155699669,17,female
3,19,0,1,1,0.922107149,17,female
3,22,0,1,1,1.67566365,17,female
3,45,1,1,1,1.002442745,17,female
3,46,0,1,0,1.574248958,17,female
3,52,1,1,1,1.245742553,17,female
3,67,0,1,1,1.188112837,17,female
3,69,0,1,1,0.778623924,17,female
3,4,0,2,1,1.558339718,17,female
3,7,0,2,1,1.74767755,17,female
3,13,0,2,1,1.888002292,17,female
3,27,1,2,1,1.054304297,17,female
3,38,0,2,1,1.636651567,17,female
3,43,1,2,1,1.162502951,17,female
3,48,0,2,1,0.986109375,17,female
3,55,1,2,1,1.678180354,17,female
3,63,1,2,1,0.797883035,17,female
3,68,1,2,1,1.501444456,17,female
3,6,1,5,1,1.488152443,17,female
3,14,1,5,1,1.440248127,17,female
3,25,0,5,1,1.172613539,17,female
3,26,0,5,1,1.04992263,17,female
3,37,0,5,1,1.67465721,17,female
3,39,1,5,1,1.252210154,17,female
3,40,1,5,1,1.008390523,17,female
3,44,1,5,1,0.786274258,17,female
3,56,0,5,1,1.41054154,17,female
3,59,0,5,1,1.453936195,17,female
3,5,0,10,1,2.208342163,17,female
3,16,1,10,1,2.089640489,17,female
3,29,0,10,1,1.38236514,17,female
3,33,1,10,1,1.452441629,17,female
3,34,0,10,1,1.13593432,17,female
3,35,0,10,1,1.798945321,17,female
3,47,1,10,1,1.418503103,17,female
3,50,1,10,1,1.318054401,17,female
3,61,0,10,1,1.362600697,17,female
3,62,1,10,1,1.284713581,17,female
3,11,0,20,1,1.413887787,17,female
3,15,1,20,1,2.248476303,17,female
3,17,1,20,1,1.091860755,17,female
3,42,0,20,1,1.027860641,17,female
3,51,1,20,1,1.304318938,17,female
3,57,0,20,1,1.536235165,17,female
3,64,0,20,1,1.470361636,17,female
3,65,1,20,1,0.848091839,17,female
3,66,0,20,1,1.398813222,17,female
3,70,1,20,1,1.714792255,17,female
3,8,0,40,1,6.844518584,17,female
3,12,1,40,1,1.409804671,17,female
3,20,0,40,0,2.866448051,17,female
3,23,1,40,0,2.138406347,17,female
3,24,1,40,0,1.925848546,17,female
3,31,1,40,0,1.98160213,17,female
3,36,0,40,0,2.393698912,17,female
3,41,0,40,0,3.014726205,17,female
3,53,1,40,0,2.15866103,17,female
3,60,0,40,0,2.464667431,17,female
3,2,1,80,1,4.947387089,17,female
3,9,1,80,0,5.013895153,17,female
3,10,1,80,1,2.585611106,17,female
3,21,1,80,0,1.824443213,17,female
3,28,1,80,0,1.284473895,17,female
3,30,0,80,0,1.830099081,17,female
3,32,0,80,0,1.820150899,17,female
3,49,0,80,0,2.2724105,17,female
3,54,0,80,0,1.61038511,17,female
3,58,0,80,0,2.17420561,17,female
4,10,1,1,0,2.338246295,20,male
4,11,1,1,0,1.762965237,20,male
4,26,1,1,0,1.36979943,20,male
4,27,0,1,0,1.822267624,20,male
4,47,0,1,0,2.246064046,20,male
4,59,0,1,0,1.684566449,20,male
4,61,0,1,0,1.598577701,20,male
4,62,1,1,0,1.487837591,20,male
4,67,1,1,0,1.2207509,20,male
4,70,0,1,0,1.314776377,20,male
4,1,0,2,0,3.624044501,20,male
4,14,1,2,0,5.424570723,20,male
4,22,1,2,0,2.102339928,20,male
4,33,0,2,0,1.851306772,20,male
4,39,0,2,0,2.065784778,20,male
4,45,1,2,1,1.77995065,20,male
4,46,0,2,0,1.506078488,20,male
4,60,1,2,0,1.658734385,20,male
4,63,1,2,0,1.974380756,20,male
4,65,0,2,0,1.278830103,20,male
4,2,0,5,0,1.914189659,20,male
4,8,0,5,0,1.924373601,20,male
4,15,1,5,0,4.594124491,20,male
4,29,1,5,0,3.520880765,20,male
4,31,1,5,0,1.605800585,20,male
4,32,0,5,0,1.569698846,20,male
4,35,1,5,0,1.348333638,20,male
4,36,0,5,0,1.635621581,20,male
4,50,0,5,0,1.119899803,20,male
4,57,1,5,0,1.259843884,20,male
4,4,0,10,1,1.644634865,20,male
4,5,1,10,1,2.09207599,20,male
4,9,0,10,0,2.096123183,20,male
4,12,0,10,1,1.900123043,20,male
4,13,0,10,0,3.303649387,20,male
4,18,1,10,0,2.981852381,20,male
4,28,0,10,0,2.046219873,20,male
4,49,1,10,0,1.560566626,20,male
4,51,1,10,0,1.31233665,20,male
4,56,1,10,0,1.831961327,20,male
4,6,1,20,0,2.287768221,20,male
4,7,1,20,1,1.891913643,20,male
4,16,1,20,0,1.468144691,20,male
4,17,1,20,1,2.12404118,20,male
4,19,0,20,1,2.897903984,20,male
4,24,0,20,0,3.672463508,20,male
4,30,0,20,1,2.555857729,20,male
4,34,1,20,0,1.753665778,20,male
4,53,0,20,0,1.669877072,20,male
4,64,0,20,0,1.122192216,20,male
4,3,0,40,1,1.034561588,20,male
4,23,1,40,1,2.779815713,20,male
4,37,0,40,1,1.683671399,20,male
4,40,1,40,1,2.375692267,20,male
4,42,0,40,1,3.007797949,20,male
4,43,1,40,1,1.749136798,20,male
4,44,0,40,1,1.834531462,20,male
4,52,1,40,1,2.040959457,20,male
4,54,0,40,1,1.770127444,20,male
4,55,1,40,1,1.688484441,20,male
4,20,1,80,1,1.965823599,20,male
4,21,1,80,1,2.634445489,20,male
4,25,1,80,1,1.441899667,20,male
4,38,0,80,1,1.781772144,20,male
4,41,1,80,1,1.865867552,20,male
4,48,0,80,1,1.838716913,20,male
4,58,0,80,1,1.729801314,20,male
4,66,0,80,1,1.702150775,20,male
4,68,1,80,0,1.914586922,20,male
4,69,0,80,1,1.55419502,20,male
5,2,1,1,0,1.411524434,19,female
5,5,1,1,1,1.726352129,19,female
5,10,0,1,0,1.83411669,19,female
5,11,0,1,1,2.386736544,19,female
5,16,0,1,0,2.126179941,19,female
5,26,1,1,1,1.647470949,19,female
5,29,1,1,0,1.583783877,19,female
5,48,0,1,1,0.811645666,19,female
5,53,0,1,1,1.380543949,19,female
5,68,1,1,1,1.030425947,19,female
5,18,0,2,1,1.930046977,19,female
5,22,1,2,0,1.610566837,19,female
5,30,1,2,1,1.475823702,19,female
5,32,1,2,1,1.116540877,19,female
5,46,0,2,1,1.158188903,19,female
5,54,1,2,1,0.733695459,19,female
5,57,1,2,0,0.746551569,19,female
5,64,0,2,0,0.838095359,19,female
5,65,0,2,1,0.708653694,19,female
5,70,0,2,1,1.266354954,19,female
5,1,0,5,1,19.55394145,19,female
5,4,0,5,1,1.360247003,19,female
5,9,1,5,1,3.590569348,19,female
5,17,1,5,1,1.322154422,19,female
5,27,1,5,0,0.930243496,19,female
5,34,1,5,1,1.383731411,19,female
5,35,0,5,0,0.72557179,19,female
5,45,0,5,1,1.084308832,19,female
5,51,0,5,1,1.147072781,19,female
5,61,1,5,1,0.882690256,19,female
5,6,1,10,1,1.68391833,19,female
5,8,1,10,1,1.025932285,19,female
5,19,0,10,1,1.267645153,19,female
5,20,0,10,0,1.840460523,19,female
5,24,1,10,0,1.680249684,19,female
5,28,1,10,1,2.839897231,19,female
5,38,1,10,1,1.196542,19,female
5,40,0,10,0,0.962493049,19,female
5,49,0,10,1,0.942562879,19,female
5,56,0,10,0,1.147759841,19,female
5,3,0,20,0,2.546802485,19,female
5,7,1,20,0,1.860116595,19,female
5,33,1,20,1,1.904311814,19,female
5,39,1,20,1,1.094377157,19,female
5,41,1,20,1,0.918301754,19,female
5,42,1,20,1,0.984287882,19,female
5,44,0,20,1,1.41459477,19,female
5,52,0,20,1,48.07853855,19,female
5,59,0,20,1,1.862583792,19,female
5,60,0,20,1,1.880538213,19,female
5,12,1,40,1,1.778702411,19,female
5,31,0,40,1,1.630289622,19,female
5,36,1,40,1,1.157905747,19,female
5,37,0,40,1,1.872240365,19,female
5,43,0,40,1,1.984041554,19,female
5,47,1,40,1,1.000576575,19,female
5,55,1,40,1,1.381832941,19,female
5,62,1,40,1,1.084395771,19,female
5,63,0,40,1,0.88810372,19,female
5,69,0,40,1,1.274924486,19,female
5,13,1,80,1,1.534133535,19,female
5,14,1,80,1,1.600304105,19,female
5,15,0,80,0,1.544432491,19,female
5,21,0,80,1,1.401793601,19,female
5,23,1,80,1,1.367788361,19,female
5,25,0,80,0,3.272526418,19,female
5,50,0,80,1,1.052385601,19,female
5,58,1,80,1,1.44676463,19,female
5,66,1,80,1,1.474367775,19,female
5,67,0,80,1,1.691925778,19,female
6,16,1,1,0,1.915707771,17,female
6,17,1,1,0,1.444041144,17,female
6,20,0,1,1,0.88987933,17,female
6,38,0,1,1,1.578324528,17,female
6,47,1,1,1,1.099772207,17,female
6,53,1,1,1,1.324400649,17,female
6,54,1,1,1,1.33647944,17,female
6,56,0,1,1,1.293873273,17,female
6,58,0,1,1,1.412559853,17,female
6,69,0,1,1,1.058622269,17,female
6,10,0,2,1,1.635781271,17,female
6,12,0,2,1,1.08021032,17,female
6,22,1,2,1,1.45940611,17,female
6,25,1,2,1,1.958597094,17,female
6,34,0,2,1,1.74420995,17,female
6,41,0,2,1,0.8899874,17,female
6,43,1,2,1,0.991951196,17,female
6,55,0,2,1,1.05389828,17,female
6,63,1,2,1,1.224607612,17,female
6,68,1,2,1,1.291884845,17,female
6,2,0,5,0,5.710832906,17,female
6,6,1,5,1,2.285972386,17,female
6,7,0,5,1,2.001884585,17,female
6,30,0,5,1,1.198556691,17,female
6,31,0,5,1,1.916409925,17,female
6,46,1,5,1,1.077938736,17,female
6,50,1,5,1,1.850663786,17,female
6,59,1,5,1,1.274182788,17,female
6,65,1,5,1,1.637566238,17,female
6,66,0,5,1,1.044099224,17,female
6,11,1,10,1,1.506062489,17,female
6,14,0,10,1,1.59517591,17,female
6,15,0,10,1,1.281600378,17,female
6,19,1,10,1,1.760330501,17,female
6,23,1,10,1,1.522275412,17,female
6,32,1,10,1,1.327918058,17,female
6,33,1,10,1,1.298236828,17,female
6,42,0,10,1,1.152546016,17,female
6,51,0,10,1,1.074351897,17,female
6,61,0,10,1,1.546474954,17,female
6,1,0,20,1,7.266639015,17,female
6,3,1,20,1,2.171590495,17,female
6,8,1,20,1,2.213945505,17,female
6,26,1,20,1,0.994059769,17,female
6,27,0,20,1,1.158082342,17,female
6,28,0,20,1,1.170046422,17,female
6,35,0,20,1,1.516103344,17,female
6,36,1,20,1,1.187996919,17,female
6,52,0,20,1,1.222427193,17,female
6,64,1,20,1,1.34674368,17,female
6,4,0,40,1,6.136900309,17,female
6,9,0,40,1,2.284177155,17,female
6,13,0,40,1,1.207866715,17,female
6,21,0,40,1,1.559856019,17,female
6,29,0,40,1,1.56465759,17,female
6,37,1,40,1,2.566009372,17,female
6,39,1,40,1,1.1078998,17,female
6,48,1,40,1,1.530611296,17,female
6,57,1,40,1,1.184470152,17,female
6,67,1,40,1,1.092388426,17,female
6,5,1,80,1,3.92049606,17,female
6,18,0,80,1,1.518184145,17,female
6,24,1,80,1,1.531823009,17,female
6,40,0,80,0,1.766676447,17,female
6,44,0,80,1,1.554454328,17,female
6,45,1,80,1,1.450618324,17,female
6,49,1,80,1,1.558630119,17,female
6,60,1,80,1,3.518430472,17,female
6,62,0,80,1,1.435971511,17,female
6,70,0,80,1,1.214625622,17,female
7,18,1,1,0,2.824046855,18,male
7,24,1,1,1,1.630785597,18,male
7,27,0,1,0,2.810195474,18,male
7,28,0,1,1,44.47779462,18,male
7,49,0,1,1,0.412776296,18,male
7,52,1,1,1,1.538567426,18,male
7,57,1,1,0,1.826677063,18,male
7,66,1,1,0,1.592839423,18,male
7,68,0,1,0,1.894481364,18,male
7,70,0,1,0,1.962929556,18,male
7,10,1,2,0,2.552242514,18,male
7,19,1,2,0,1.212200989,18,male
7,25,1,2,0,3.474026358,18,male
7,26,0,2,0,2.692207123,18,male
7,30,0,2,0,3.524521941,18,male
7,36,1,2,0,2.204121997,18,male
7,38,0,2,0,1.909933872,18,male
7,42,1,2,0,1.509753474,18,male
7,56,0,2,0,1.776251817,18,male
7,59,0,2,0,2.842137421,18,male
7,4,0,5,0,4.178263369,18,male
7,9,1,5,0,2.344600391,18,male
7,15,1,5,1,1.754571394,18,male
7,16,0,5,0,1.438218945,18,male
7,37,0,5,0,1.622875654,18,male
7,47,1,5,0,5.687104586,18,male
7,48,1,5,0,0.792057817,18,male
7,54,0,5,0,1.998455625,18,male
7,62,0,5,0,2.622824939,18,male
7,67,1,5,0,2.416156654,18,male
7,2,1,10,0,2.268411002,18,male
7,5,0,10,0,2.645951931,18,male
7,8,1,10,1,3.754613354,18,male
7,29,1,10,0,2.151928084,18,male
7,34,1,10,0,2.708487967,18,male
7,39,0,10,0,2.32205571,18,male
7,40,0,10,0,1.13492637,18,male
7,43,1,10,0,1.666127524,18,male
7,44,0,10,0,1.354371374,18,male
7,55,0,10,0,2.108432906,18,male
7,7,1,20,1,3.596474864,18,male
7,14,0,20,0,2.296329905,18,male
7,20,0,20,1,2.603889133,18,male
7,21,1,20,1,4.143957465,18,male
7,31,0,20,1,13.68542648,18,male
7,33,1,20,1,2.282005792,18,male
7,53,1,20,1,4.011013486,18,male
7,58,0,20,1,3.952714521,18,male
7,61,1,20,1,3.928207371,18,male
7,64,0,20,1,2.024968711,18,male
7,3,1,40,1,2.579426662,18,male
7,11,1,40,1,2.328593043,18,male
7,13,0,40,1,1.872004301,18,male
7,32,0,40,1,1.447276906,18,male
7,35,0,40,1,1.222121397,18,male
7,41,1,40,1,2.030622163,18,male
7,51,1,40,0,4.705141418,18,male
7,60,0,40,1,10.61722311,18,male
7,65,1,40,1,1.514554441,18,male
7,69,0,40,1,1.562238692,18,male
7,1,1,80,1,6.433903086,18,male
7,6,1,80,1,2.079798869,18,male
7,12,0,80,1,2.034343034,18,male
7,17,0,80,1,2.16800577,18,male
7,22,1,80,1,1.905990825,18,male
7,23,0,80,1,3.538687873,18,male
7,45,0,80,1,1.465917482,18,male
7,46,1,80,0,2.542802987,18,male
7,50,0,80,0,2.95254185,18,male
7,63,1,80,1,3.444997171,18,male
8,1,0,1,1,3.463724384,18,female
8,2,1,1,0,2.736096244,18,female
8,5,1,1,1,2.940442532,18,female
8,30,1,1,0,1.066377957,18,female
8,31,0,1,1,0.989944957,18,female
8,33,0,1,0,1.44861299,18,female
8,55,0,1,0,1.917196602,18,female
8,57,0,1,0,1.004618939,18,female
8,62,1,1,0,2.253224744,18,female
8,68,1,1,0,2.170532435,18,female
8,4,0,2,1,2.043033919,18,female
8,27,0,2,1,1.753693853,18,female
8,28,0,2,0,1.064350285,18,female
8,46,1,2,0,1.851843802,18,female
8,50,1,2,0,1.564137465,18,female
8,53,1,2,0,1.163739417,18,female
8,54,0,2,1,0.726443294,18,female
8,58,1,2,0,1.5059514,18,female
8,59,1,2,0,1.324546755,18,female
8,61,0,2,0,1.202419441,18,female
8,7,1,5,0,2.237516248,18,female
8,10,0,5,1,1.595747957,18,female
8,19,1,5,1,1.214114553,18,female
8,23,0,5,1,1.459821183,18,female
8,29,1,5,0,0.881888485,18,female
8,34,0,5,0,0.868413839,18,female
8,35,0,5,0,1.105860657,18,female
8,45,1,5,0,1.002627491,18,female
8,47,0,5,0,1.280727064,18,female
8,56,1,5,0,1.472101624,18,female
8,3,0,10,0,1.671983834,18,female
8,14,1,10,1,0.992282047,18,female
8,16,1,10,1,1.374304865,18,female
8,36,0,10,0,1.650224623,18,female
8,37,1,10,0,1.514357016,18,female
8,39,1,10,0,0.895799637,18,female
8,43,0,10,0,1.798428215,18,female
8,44,0,10,0,0.842492119,18,female
8,69,1,10,0,1.120557883,18,female
8,70,0,10,0,2.120273218,18,female
8,15,1,20,0,0.556127904,18,female
8,17,1,20,1,1.207914411,18,female
8,21,1,20,1,1.591679632,18,female
8,22,0,20,0,0.855832432,18,female
8,24,0,20,1,1.136378675,18,female
8,25,1,20,1,1.02364923,18,female
8,49,1,20,1,1.327972394,18,female
8,52,0,20,1,1.810563456,18,female
8,60,0,20,1,1.465854994,18,female
8,67,0,20,1,2.935993849,18,female
8,11,1,40,0,1.316508818,18,female
8,13,0,40,1,1.319685716,18,female
8,20,0,40,1,1.80430475,18,female
8,26,0,40,0,1.18857289,18,female
8,32,1,40,1,1.88044735,18,female
8,38,1,40,1,1.426193283,18,female
8,40,0,40,1,1.466413759,18,female
8,42,1,40,1,0.950481274,18,female
8,51,0,40,1,1.453989023,18,female
8,66,1,40,1,2.076130223,18,female
8,6,1,80,1,1.583830667,18,female
8,8,1,80,1,1.054716956,18,female
8,9,1,80,0,2.521561787,18,female
8,12,0,80,1,0.803569089,18,female
8,18,0,80,1,1.572420522,18,female
8,41,1,80,1,1.180723321,18,female
8,48,0,80,1,1.098316884,18,female
8,63,0,80,1,1.362506211,18,female
8,64,0,80,1,1.33180375,18,female
8,65,1,80,1,1.272264394,18,female
9,2,0,1,0,14.67666979,18,male
9,23,1,1,1,1.520290304,18,male
9,25,0,1,1,1.582000721,18,male
9,40,1,1,0,1.53043772,18,male
9,41,0,1,0,1.612538964,18,male
9,42,1,1,0,0.911672351,18,male
9,47,1,1,0,4.75854161,18,male
9,56,1,1,1,0.904290683,18,male
9,60,0,1,1,0.998557355,18,male
9,61,0,1,0,0.980092771,18,male
9,12,0,2,0,2.293756751,18,male
9,13,0,2,1,0.972303879,18,male
9,14,0,2,0,1.566241812,18,male
9,20,1,2,0,0.950102727,18,male
9,22,1,2,1,1.651765376,18,male
9,32,1,2,1,1.194228153,18,male
9,45,1,2,0,0.920102117,18,male
9,51,1,2,1,1.330127758,18,male
9,55,0,2,1,1.390017285,18,male
9,57,0,2,1,0.655690613,18,male
9,15,1,5,0,1.651877672,18,male
9,21,1,5,0,1.037959154,18,male
9,27,0,5,1,1.679625716,18,male
9,28,0,5,1,0.800298913,18,male
9,31,0,5,1,1.442484995,18,male
9,34,1,5,0,0.904369773,18,male
9,36,0,5,1,0.939970103,18,male
9,38,0,5,1,0.913800244,18,male
9,58,1,5,0,0.885986393,18,male
9,62,1,5,1,1.356655032,18,male
9,1,1,10,1,5.986895147,18,male
9,5,1,10,0,1.937920092,18,male
9,8,0,10,1,1.736322346,18,male
9,17,0,10,1,1.40009346,18,male
9,30,0,10,0,0.936002905,18,male
9,35,1,10,0,1.080251676,18,male
9,37,1,10,1,1.110289417,18,male
9,43,0,10,0,0.869821769,18,male
9,48,1,10,1,1.710511413,18,male
9,59,0,10,1,1.328704735,18,male
9,19,0,20,1,1.15449822,18,male
9,29,1,20,1,0.585596314,18,male
9,39,0,20,1,1.336461629,18,male
9,46,1,20,0,0.916232123,18,male
9,52,0,20,0,1.067769283,18,male
9,54,1,20,1,1.491915877,18,male
9,64,0,20,1,1.039898982,18,male
9,67,1,20,1,1.181940165,18,male
9,68,1,20,1,1.154714058,18,male
9,69,0,20,1,1.184817304,18,male
9,3,1,40,1,3.61136257,18,male
9,6,1,40,1,1.927967987,18,male
9,9,0,40,1,1.435758993,18,male
9,10,0,40,0,1.268439982,18,male
9,24,1,40,1,1.315919866,18,male
9,33,1,40,1,0.94561299,18,male
9,50,0,40,1,1.116010488,18,male
9,63,0,40,1,1.540347563,18,male
9,65,1,40,1,0.987840006,18,male
9,70,0,40,1,0.846091939,18,male
9,4,0,80,0,39.72585132,18,male
9,7,1,80,0,1.777784117,18,male
9,11,0,80,1,1.051965698,18,male
9,16,0,80,1,2.55841579,18,male
9,18,0,80,1,1.605534032,18,male
9,26,1,80,1,1.02005907,18,male
9,44,1,80,1,1.513918095,18,male
9,49,1,80,1,1.874205247,18,male
9,53,1,80,0,1.08202487,18,male
9,66,0,80,1,1.454945654,18,male
11,5,0,1,0,2.077597017,25,male
11,10,0,1,1,0.812226768,25,male
11,12,1,1,1,1.923805177,25,male
11,20,0,1,0,0.833749916,25,male
11,34,0,1,1,0.946617316,25,male
11,43,1,1,1,0.916469092,25,male
11,45,1,1,1,1.183470957,25,male
11,50,1,1,1,1.000216744,25,male
11,52,1,1,1,1.555347868,25,male
11,70,0,1,1,1.714529023,25,male
11,2,1,2,0,2.915413145,25,male
11,6,0,2,1,2.421577665,25,male
11,9,0,2,0,0.906078065,25,male
11,25,1,2,1,1.650454045,25,male
11,28,0,2,1,0.908672954,25,male
11,48,0,2,1,1.002388107,25,male
11,54,1,2,1,1.186545821,25,male
11,57,0,2,1,1.126673199,25,male
11,61,1,2,1,0.772262281,25,male
11,66,1,2,1,1.170492286,25,male
11,15,0,5,0,1.982868179,25,male
11,16,1,5,0,1.178688706,25,male
11,33,1,5,1,1.144551549,25,male
11,36,1,5,1,1.46621724,25,male
11,37,0,5,1,1.125458467,25,male
11,55,1,5,1,0.960444548,25,male
11,56,1,5,1,1.211463214,25,male
11,64,0,5,1,0.920464665,25,male
11,68,0,5,1,1.198412698,25,male
11,69,0,5,1,1.138230658,25,male
11,7,0,10,1,2.329869054,25,male
11,8,1,10,0,1.385722859,25,male
11,11,1,10,1,1.068059684,25,male
11,18,0,10,1,1.480306799,25,male
11,19,1,10,1,0.695761662,25,male
11,21,1,10,1,1.588358742,25,male
11,22,0,10,1,0.810203927,25,male
11,29,1,10,1,0.894094062,25,male
11,38,0,10,1,1.732326773,25,male
11,41,0,10,1,1.048447685,25,male
11,23,1,20,1,1.308102597,25,male
11,27,1,20,1,1.106482211,25,male
11,31,0,20,1,1.982120443,25,male
11,42,1,20,1,1.346418866,25,male
11,44,0,20,1,0.920226187,25,male
11,47,1,20,1,0.940061268,25,male
11,58,0,20,1,1.12030733,25,male
11,59,0,20,1,1.22592498,25,male
11,63,1,20,1,1.118763256,25,male
11,67,0,20,1,0.927984892,25,male
11,13,1,40,1,1.354205646,25,male
11,14,1,40,1,0.850364631,25,male
11,26,0,40,1,2.756059319,25,male
11,30,0,40,1,1.557695222,25,male
11,35,0,40,1,0.903975831,25,male
11,39,1,40,1,1.152055474,25,male
11,53,0,40,1,1.020551423,25,male
11,60,0,40,1,1.358065377,25,male
11,62,1,40,1,1.402535299,25,male
11,65,1,40,1,1.177100257,25,male
11,1,1,80,0,8.423264223,25,male
11,3,1,80,1,3.748797494,25,male
11,4,1,80,0,6.310426406,25,male
11,17,0,80,1,1.518265047,25,male
11,24,1,80,1,1.789183395,25,male
11,32,0,80,1,2.116524877,25,male
11,40,0,80,1,0.97830388,25,male
11,46,0,80,1,1.078014204,25,male
11,49,0,80,1,1.4677752,25,male
11,51,1,80,1,1.591301689,25,male
12,7,1,1,0,0.486439623,18,female
12,9,1,1,1,1.448432773,18,female
12,11,0,1,0,1.256130863,18,female
12,13,0,1,1,1.005522138,18,female
12,40,0,1,1,0.456422109,18,female
12,51,1,1,0,5.360698905,18,female
12,53,1,1,0,2.04177934,18,female
12,57,1,1,0,3.098381485,18,female
12,59,0,1,1,1.833358087,18,female
12,67,0,1,1,1.225985354,18,female
12,3,1,2,1,5.805255344,18,female
12,8,1,2,0,3.805692454,18,female
12,21,0,2,0,2.00228064,18,female
12,22,1,2,0,0.8441663,18,female
12,25,0,2,1,0.890549787,18,female
12,28,0,2,0,3.290350129,18,female
12,31,1,2,1,0.792558019,18,female
12,32,0,2,1,0.983896354,18,female
12,47,1,2,0,1.818411515,18,female
12,52,0,2,0,1.857779505,18,female
12,1,0,5,1,3.064438733,18,female
12,24,1,5,1,1.222056796,18,female
12,27,1,5,0,2.212059411,18,female
12,36,0,5,1,1.438413653,18,female
12,39,0,5,1,0.700123405,18,female
12,46,0,5,1,1.7198477,18,female
12,48,1,5,0,3.276310078,18,female
12,54,0,5,1,3.200036466,18,female
12,60,1,5,1,2.232846595,18,female
12,68,1,5,0,2.340264307,18,female
12,16,1,10,1,0.717625924,18,female
12,17,0,10,0,1.260308766,18,female
12,18,0,10,1,1.146128526,18,female
12,26,1,10,1,1.994245118,18,female
12,34,1,10,0,2.130082538,18,female
12,41,0,10,1,0.607997909,18,female
12,49,0,10,0,2.124529306,18,female
12,50,1,10,0,4.084510482,18,female
12,65,0,10,0,1.830244884,18,female
12,66,1,10,0,1.906426425,18,female
12,5,0,20,1,1.742934241,18,female
12,10,1,20,1,1.822305358,18,female
12,12,1,20,0,0.83429087,18,female
12,20,1,20,0,1.185864195,18,female
12,29,0,20,0,0.841844001,18,female
12,30,0,20,0,1.241836635,18,female
12,44,0,20,1,1.738093427,18,female
12,61,1,20,0,2.93083939,18,female
12,69,0,20,1,1.380215814,18,female
12,70,1,20,1,2.262959502,18,female
12,6,0,40,0,1.641525285,18,female
12,14,1,40,1,1.023533009,18,female
12,19,1,40,1,0.652251993,18,female
12,23,0,40,0,1.968132917,18,female
12,33,1,40,1,0.490140268,18,female
12,35,1,40,1,1.044331967,18,female
12,37,0,40,1,0.680099654,18,female
12,43,0,40,0,0.555693813,18,female
12,58,1,40,1,1.50568213,18,female
12,64,0,40,1,1.238049353,18,female
12,2,1,80,0,1.104954137,18,female
12,4,1,80,0,3.064412169,18,female
12,15,0,80,1,3.417931962,18,female
12,38,0,80,0,1.69778722,18,female
12,42,1,80,1,0.945835771,18,female
12,45,0,80,1,4.080464798,18,female
12,55,1,80,1,2.618189096,18,female
12,56,1,80,1,2.225438665,18,female
12,62,0,80,1,1.949930358,18,female
12,63,0,80,1,2.247233799,18,female
13,5,1,1,0,2.460135328,21,male
13,8,1,1,1,2.581972684,21,male
13,13,1,1,0,1.577577471,21,male
13,14,1,1,1,1.872350458,21,male
13,37,1,1,1,1.776044882,21,male
13,39,0,1,0,1.014453489,21,male
13,45,0,1,1,0.754022933,21,male
13,53,0,1,1,2.200854591,21,male
13,54,0,1,1,1.627844399,21,male
13,70,0,1,1,1.561962088,21,male
13,2,1,2,0,10.17305034,21,male
13,3,0,2,1,0.896977235,21,male
13,10,0,2,1,2.180417455,21,male
13,20,0,2,0,1.195861678,21,male
13,21,1,2,1,1.712212262,21,male
13,38,0,2,1,1.10511834,21,male
13,51,1,2,1,2.151936716,21,male
13,60,0,2,0,0.742481877,21,male
13,68,1,2,1,1.792335546,21,male
13,69,1,2,1,1.85439076,21,male
13,9,0,5,0,1.222108283,21,male
13,25,0,5,1,2.051897926,21,male
13,34,1,5,1,0.914568652,21,male
13,43,0,5,1,2.498475109,21,male
13,44,1,5,1,1.808165557,21,male
13,47,1,5,1,2.142388599,21,male
13,52,0,5,1,1.680774113,21,male
13,55,0,5,1,1.579852054,21,male
13,63,1,5,0,1.99680049,21,male
13,67,1,5,0,1.2867641,21,male
13,1,1,10,0,16.65174271,21,male
13,6,0,10,0,3.390215821,21,male
13,17,0,10,0,1.837777399,21,male
13,35,1,10,1,0.826446745,21,male
13,40,0,10,1,0.980422888,21,male
13,49,1,10,1,1.448035512,21,male
13,50,1,10,1,0.852042521,21,male
13,61,1,10,1,0.699934343,21,male
13,64,0,10,1,1.146215694,21,male
13,65,0,10,0,1.330364854,21,male
13,4,0,20,1,2.582210557,21,male
13,7,1,20,0,4.866328473,21,male
13,18,0,20,1,1.557878102,21,male
13,19,0,20,0,3.220338727,21,male
13,23,0,20,0,1.322374683,21,male
13,28,0,20,0,3.208033037,21,male
13,30,1,20,0,1.532404281,21,male
13,31,1,20,1,0.833977472,21,male
13,41,1,20,0,1.162247354,21,male
13,66,1,20,0,0.927800491,21,male
13,12,1,40,1,2.516123579,21,male
13,22,0,40,0,1.191913231,21,male
13,24,0,40,0,1.362234676,21,male
13,26,0,40,0,1.078262865,21,male
13,27,0,40,1,1.503989652,21,male
13,29,1,40,1,1.662545752,21,male
13,33,1,40,0,1.566453597,21,male
13,36,0,40,0,0.713748776,21,male
13,42,1,40,0,5.042367921,21,male
13,62,1,40,0,1.944519492,21,male
13,11,1,80,0,3.037841999,21,male
13,15,0,80,0,2.126081634,21,male
13,16,1,80,1,2.525634265,21,male
13,32,0,80,0,1.50009041,21,male
13,46,0,80,0,1.450053204,21,male
13,48,1,80,0,2.322590217,21,male
13,56,1,80,0,1.878608203,21,male
13,57,1,80,1,1.391637322,21,male
13,58,0,80,1,1.150123087,21,male
13,59,0,80,0,1.010576283,21,male
14,1,1,1,1,81.74763327,19,female
14,6,1,1,1,3.219859359,19,female
14,8,0,1,0,9.697399549,19,female
14,11,0,1,1,5.8104498,19,female
14,12,1,1,0,5.320068102,19,female
14,13,1,1,1,3.371665064,19,female
14,16,0,1,1,1.401893624,19,female
14,17,0,1,1,1.828225357,19,female
14,28,0,1,1,5.336438459,19,female
14,54,1,1,1,0.757777278,19,female
14,4,1,2,1,2.066004869,19,female
14,5,0,2,0,4.150310246,19,female
14,23,0,2,1,0.742012772,19,female
14,36,0,2,1,1.644260942,19,female
14,49,0,2,1,0.942223175,19,female
14,50,1,2,1,1.222495883,19,female
14,51,1,2,1,1.120280316,19,female
14,64,1,2,1,1.604433248,19,female
14,65,1,2,0,1.321883844,19,female
14,69,0,2,1,1.374612815,19,female
14,3,0,5,1,4.902598036,19,female
14,22,0,5,0,1.603601901,19,female
14,25,0,5,1,1.802320467,19,female
14,33,1,5,1,0.980488394,19,female
14,42,0,5,1,1.652277074,19,female
14,43,1,5,0,1.460466478,19,female
14,46,1,5,1,0.919616807,19,female
14,55,1,5,1,1.06439953,19,female
14,60,1,5,1,0.844629222,19,female
14,68,0,5,1,0.846279842,19,female
14,2,1,10,1,5.140091678,19,female
14,20,0,10,1,1.730125472,19,female
14,26,0,10,1,0.879998008,19,female
14,32,0,10,1,1.751635451,19,female
14,34,1,10,1,1.897978534,19,female
14,38,1,10,1,2.096830828,19,female
14,41,1,10,1,2.016560535,19,female
14,48,0,10,1,1.955834449,19,female
14,53,0,10,1,0.966304474,19,female
14,66,1,10,0,3.206030739,19,female
14,18,0,20,0,3.093905415,19,female
14,21,1,20,1,1.712185094,19,female
14,24,0,20,0,0.868364881,19,female
14,37,0,20,1,2.95050797,19,female
14,39,1,20,0,2.018183081,19,female
14,45,1,20,1,1.371829281,19,female
14,56,0,20,0,1.023962363,19,female
14,58,0,20,1,1.664326779,19,female
14,59,1,20,1,1.874222951,19,female
14,63,1,20,1,1.138177526,19,female
14,7,0,40,1,5.866185689,19,female
14,10,1,40,1,3.194054388,19,female
14,14,1,40,0,4.650378317,19,female
14,15,1,40,1,2.521746192,19,female
14,30,0,40,0,1.680274822,19,female
14,47,0,40,0,1.031840239,19,female
14,57,0,40,1,0.885970486,19,female
14,61,0,40,0,1.475833725,19,female
14,62,1,40,1,1.166469295,19,female
14,70,1,40,0,1.097874691,19,female
14,9,1,80,1,1.197490865,19,female
14,19,1,80,1,1.933787747,19,female
14,27,1,80,1,1.764056757,19,female
14,29,0,80,1,1.352241906,19,female
14,31,0,80,1,3.040029342,19,female
14,35,1,80,0,2.080003441,19,female
14,40,0,80,1,1.077851719,19,female
14,44,1,80,1,1.436017804,19,female
14,52,0,80,0,2.008183971,19,female
14,67,0,80,1,1.152610186,19,female
15,6,1,1,1,1.795604485,20,male
15,16,0,1,1,0.957657436,20,male
15,24,0,1,1,0.823778223,20,male
15,39,0,1,1,0.970508,20,male
15,42,0,1,0,0.85921825,20,male
15,43,1,1,1,0.798497598,20,male
15,53,0,1,1,0.935974486,20,male
15,57,1,1,1,0.820028708,20,male
15,67,1,1,0,2.78224497,20,male
15,70,1,1,1,0.556503994,20,male
15,10,0,2,1,0.855811658,20,male
15,17,1,2,1,0.945571808,20,male
15,21,0,2,0,1.313902125,20,male
15,23,0,2,1,0.862119513,20,male
15,37,1,2,1,1.061807682,20,male
15,46,1,2,1,0.578004616,20,male
15,47,0,2,0,0.940155372,20,male
15,48,1,2,1,0.608381393,20,male
15,55,1,2,1,0.954129493,20,male
15,64,0,2,1,0.834026676,20,male
15,15,0,5,1,1.280597821,20,male
15,20,0,5,1,0.872466677,20,male
15,31,1,5,1,1.256438338,20,male
15,40,0,5,1,1.107084715,20,male
15,41,1,5,0,0.868380276,20,male
15,44,0,5,0,1.480615934,20,male
15,45,0,5,0,0.751916491,20,male
15,50,1,5,1,1.44536216,20,male
15,51,1,5,1,1.623588951,20,male
15,65,1,5,1,0.726397993,20,male
15,1,0,10,0,41.23759899,20,male
15,4,0,10,1,1.074448146,20,male
15,8,0,10,1,1.281950195,20,male
15,14,1,10,1,1.427048974,20,male
15,38,1,10,1,1.111927298,20,male
15,49,0,10,1,0.69255908,20,male
15,52,1,10,1,1.028045745,20,male
15,54,1,10,0,0.806519465,20,male
15,58,1,10,1,0.620108401,20,male
15,68,0,10,1,1.763738587,20,male
15,2,1,20,0,2.725228251,20,male
15,3,0,20,1,5.882620948,20,male
15,5,0,20,0,0.596171697,20,male
15,13,0,20,1,1.119831134,20,male
15,32,1,20,0,0.933976113,20,male
15,59,0,20,1,0.71432444,20,male
15,60,1,20,0,0.592390788,20,male
15,62,1,20,1,2.08991199,20,male
15,66,0,20,1,0.884498573,20,male
15,69,1,20,1,11.28667324,20,male
15,7,0,40,1,1.184268096,20,male
15,9,1,40,0,1.340373925,20,male
15,11,1,40,1,2.817896909,20,male
15,18,0,40,0,1.026069409,20,male
15,19,1,40,1,0.938390948,20,male
15,25,0,40,0,0.956224766,20,male
15,26,0,40,1,1.447073153,20,male
15,30,1,40,1,0.968300734,20,male
15,33,1,40,0,1.377726594,20,male
15,61,0,40,1,1.274512142,20,male
15,12,0,80,0,2.639760376,20,male
15,22,0,80,1,1.20177348,20,male
15,27,1,80,1,1.430450736,20,male
15,28,0,80,1,2.740474448,20,male
15,29,1,80,1,1.752180324,20,male
15,34,1,80,1,1.522232804,20,male
15,35,1,80,1,1.660171854,20,male
15,36,1,80,1,1.389680004,20,male
15,56,0,80,1,1.02997982,20,male
15,63,0,80,1,1.642712957,20,male
16,5,0,1,0,2.987913466,18,female
16,9,0,1,1,2.679591088,18,female
16,22,1,1,0,2.293855003,18,female
16,32,1,1,0,0.854185188,18,female
16,42,0,1,0,1.572528712,18,female
16,44,1,1,1,1.534130066,18,female
16,48,0,1,1,0.956374191,18,female
16,49,0,1,0,1.733679376,18,female
16,53,1,1,0,1.161848284,18,female
16,68,1,1,0,1.690074999,18,female
16,2,1,2,0,2.874110656,18,female
16,14,1,2,0,3.430438057,18,female
16,17,1,2,0,1.391952776,18,female
16,21,0,2,0,1.175723995,18,female
16,24,0,2,0,1.538269898,18,female
16,26,0,2,0,1.786224509,18,female
16,37,0,2,0,1.26656544,18,female
16,38,1,2,0,1.778487002,18,female
16,55,1,2,1,1.084001395,18,female
16,62,0,2,1,1.175773502,18,female
16,10,1,5,0,2.837565487,18,female
16,12,0,5,0,2.462341387,18,female
16,20,0,5,0,1.92972459,18,female
16,25,0,5,1,1.677889453,18,female
16,27,1,5,0,1.417574513,18,female
16,29,1,5,1,1.141740486,18,female
16,34,0,5,0,1.403690349,18,female
16,40,0,5,1,0.983750391,18,female
16,58,1,5,0,1.237816944,18,female
16,65,1,5,1,1.437942823,18,female
16,3,0,10,0,1.408735184,18,female
16,13,1,10,1,3.361806022,18,female
16,15,1,10,0,1.317853289,18,female
16,31,1,10,0,1.372249785,18,female
16,33,0,10,0,1.147896199,18,female
16,50,0,10,1,1.941596193,18,female
16,60,1,10,0,0.993735614,18,female
16,66,1,10,1,1.092343847,18,female
16,67,0,10,1,1.666575703,18,female
16,70,0,10,1,0.693071049,18,female
16,4,0,20,0,2.773950816,18,female
16,16,1,20,0,1.443832288,18,female
16,19,0,20,0,1.850330018,18,female
16,30,0,20,1,2.540285779,18,female
16,36,1,20,1,1.872016591,18,female
16,39,1,20,0,0.983585268,18,female
16,54,0,20,1,1.449946946,18,female
16,57,1,20,1,1.304320199,18,female
16,61,1,20,0,1.276584473,18,female
16,69,0,20,1,1.392153217,18,female
16,8,1,40,0,3.458129408,18,female
16,11,1,40,0,3.14992174,18,female
16,23,0,40,0,2.194230377,18,female
16,35,0,40,0,2.233756805,18,female
16,41,1,40,1,1.460363843,18,female
16,43,0,40,0,1.620136173,18,female
16,46,1,40,0,1.548555481,18,female
16,47,0,40,1,1.314013213,18,female
16,52,1,40,0,2.476104803,18,female
16,63,0,40,1,1.277700784,18,female
16,1,1,80,0,49.78074196,18,female
16,6,1,80,0,2.85357511,18,female
16,7,1,80,0,3.43754345,18,female
16,18,1,80,0,2.576737369,18,female
16,28,0,80,1,1.789255274,18,female
16,45,0,80,1,1.486524718,18,female
16,51,0,80,1,1.436438308,18,female
16,56,0,80,1,1.192289058,18,female
16,59,0,80,0,1.895714215,18,female
16,64,1,80,1,1.570033462,18,female
17,3,0,1,0,1.486273865,19,female
17,13,0,1,0,2.408306228,19,female
17,23,1,1,0,1.592152009,19,female
17,26,1,1,0,2.090514219,19,female
17,27,1,1,0,1.173892858,19,female
17,40,1,1,0,1.530065702,19,female
17,49,1,1,0,1.558253325,19,female
17,58,0,1,0,1.06590646,19,female
17,59,0,1,0,1.548497522,19,female
17,60,0,1,0,1.684124557,19,female
17,7,0,2,0,2.580019289,19,female
17,18,0,2,0,1.405819431,19,female
17,21,1,2,0,1.474099789,19,female
17,28,1,2,1,1.308307888,19,female
17,48,0,2,0,1.351619452,19,female
17,51,0,2,0,1.258250156,19,female
17,56,1,2,0,1.509708259,19,female
17,57,1,2,1,1.212160794,19,female
17,61,0,2,0,1.734075428,19,female
17,62,1,2,0,1.210316978,19,female
17,2,1,5,1,3.47638705,19,female
17,10,0,5,0,2.842507988,19,female
17,12,1,5,0,1.66768145,19,female
17,16,1,5,0,0.836099007,19,female
17,24,0,5,0,1.984287114,19,female
17,25,1,5,0,1.726305319,19,female
17,32,0,5,0,1.944157853,19,female
17,35,0,5,0,1.266419335,19,female
17,36,0,5,0,1.87043691,19,female
17,66,1,5,0,1.667904531,19,female
17,19,0,10,0,1.264090718,19,female
17,20,0,10,0,1.64158759,19,female
17,29,0,10,0,1.83799082,19,female
17,34,1,10,1,3.104343744,19,female
17,37,0,10,1,1.268400804,19,female
17,38,1,10,0,1.66023102,19,female
17,41,0,10,0,1.530066607,19,female
17,43,1,10,0,2.152326127,19,female
17,64,1,10,0,1.866657208,19,female
17,70,1,10,1,1.511827983,19,female
17,1,1,20,0,45.35180933,19,female
17,6,0,20,0,3.295947559,19,female
17,9,0,20,0,1.21548739,19,female
17,15,1,20,1,1.366020114,19,female
17,33,1,20,1,1.574135258,19,female
17,42,1,20,0,1.8298796,19,female
17,46,1,20,0,2.436256281,19,female
17,50,0,20,1,1.629751305,19,female
17,52,0,20,0,1.958657226,19,female
17,69,0,20,1,1.333833329,19,female
17,8,0,40,1,4.076574511,19,female
17,11,1,40,1,1.575455634,19,female
17,17,1,40,1,2.453611938,19,female
17,22,0,40,1,2.125885721,19,female
17,30,1,40,0,2.010457045,19,female
17,39,1,40,1,1.498902857,19,female
17,47,0,40,1,1.201661487,19,female
17,55,0,40,0,1.491957455,19,female
17,63,1,40,0,2.114195542,19,female
17,68,0,40,0,1.857945268,19,female
17,4,0,80,1,2.066546422,19,female
17,5,1,80,0,1.898303647,19,female
17,14,1,80,0,2.041801917,19,female
17,31,1,80,0,2.274262798,19,female
17,44,0,80,1,1.799975549,19,female
17,45,1,80,0,2.761668068,19,female
17,53,0,80,1,2.574506859,19,female
17,54,1,80,1,2.058627492,19,female
17,65,0,80,0,2.294244414,19,female
17,67,0,80,1,1.495827415,19,female
18,7,1,1,1,7.34042313,23,male
18,10,1,1,1,1.609886512,23,male
18,15,0,1,1,2.731709982,23,male
18,36,0,1,1,1.326332186,23,male
18,37,1,1,1,1.868250473,23,male
18,40,0,1,1,1.900584267,23,male
18,49,1,1,1,1.204497245,23,male
18,56,1,1,1,1.066576307,23,male
18,60,0,1,1,3.928205585,23,male
18,67,0,1,1,1.144031974,23,male
18,12,1,2,1,1.445928164,23,male
18,23,1,2,1,1.983609116,23,male
18,24,0,2,1,1.309751426,23,male
18,25,0,2,1,1.304007462,23,male
18,32,0,2,1,1.318227606,23,male
18,39,0,2,1,1.262640237,23,male
18,51,0,2,1,2.228407384,23,male
18,53,1,2,1,3.002211794,23,male
18,61,1,2,1,1.686056519,23,male
18,63,1,2,1,1.356513352,23,male
18,2,1,5,1,8.732030869,23,male
18,5,0,5,1,2.54361781,23,male
18,11,0,5,1,3.037936786,23,male
18,18,0,5,1,1.63808289,23,male
18,22,1,5,1,1.298102602,23,male
18,28,1,5,1,1.505805394,23,male
18,42,0,5,1,2.101009903,23,male
18,44,1,5,1,1.391662378,23,male
18,68,0,5,1,2.260669636,23,male
18,70,1,5,1,1.142286869,23,male
18,3,0,10,0,2.477317411,23,male
18,9,1,10,1,2.243839532,23,male
18,19,0,10,1,1.840373774,23,male
18,20,0,10,1,1.3558266,23,male
18,46,1,10,1,2.465624816,23,male
18,50,0,10,1,1.224263326,23,male
18,52,0,10,1,2.005796187,23,male
18,54,1,10,1,1.349727941,23,male
18,57,1,10,1,2.320468078,23,male
18,62,1,10,1,1.782564951,23,male
18,14,0,20,0,3.001682014,23,male
18,16,1,20,1,1.715995587,23,male
18,17,0,20,1,3.854474982,23,male
18,21,1,20,1,2.781699794,23,male
18,30,0,20,1,1.485540021,23,male
18,35,1,20,1,1.927932393,23,male
18,41,1,20,1,2.692626698,23,male
18,47,0,20,1,1.520228092,23,male
18,65,1,20,1,1.244106687,23,male
18,69,0,20,1,2.26073484,23,male
18,4,1,40,1,2.143801346,23,male
18,8,0,40,0,6.921741965,23,male
18,34,0,40,0,1.588198129,23,male
18,43,0,40,0,2.096088532,23,male
18,45,1,40,0,4.082510765,23,male
18,48,0,40,0,1.505913765,23,male
18,55,0,40,0,1.916206895,23,male
18,58,1,40,0,5.130506732,23,male
18,59,1,40,0,2.821937426,23,male
18,66,1,40,0,1.956606026,23,male
18,1,0,80,1,42.35017561,23,male
18,6,1,80,0,3.955746303,23,male
18,13,1,80,0,3.384449821,23,male
18,26,0,80,0,1.334217306,23,male
18,27,1,80,0,1.479921031,23,male
18,29,0,80,0,2.650389788,23,male
18,31,0,80,0,1.600291605,23,male
18,33,0,80,0,1.599894346,23,male
18,38,1,80,0,3.089736604,23,male
18,64,1,80,0,1.606664061,23,male
19,4,1,1,1,1.376014091,18,female
19,12,0,1,0,2.13194695,18,female
19,18,0,1,0,1.577940619,18,female
19,20,1,1,0,1.248310213,18,female
19,23,1,1,0,1.118503816,18,female
19,31,1,1,0,1.134187421,18,female
19,32,1,1,0,1.552362653,18,female
19,45,0,1,0,1.039551785,18,female
19,55,0,1,0,1.371872448,18,female
19,65,0,1,0,1.330913954,18,female
19,8,1,2,0,1.733754843,18,female
19,10,0,2,0,1.269511983,18,female
19,11,1,2,0,1.752524455,18,female
19,34,1,2,0,0.857630419,18,female
19,36,0,2,0,1.698260178,18,female
19,39,0,2,0,1.326501534,18,female
19,46,0,2,0,1.046294935,18,female
19,58,1,2,0,1.102450724,18,female
19,67,0,2,0,1.201802158,18,female
19,69,1,2,0,1.644383802,18,female
19,25,0,5,0,1.620488454,18,female
19,28,1,5,0,1.078066348,18,female
19,29,0,5,0,0.920042141,18,female
19,33,1,5,0,0.865738923,18,female
19,41,0,5,0,1.052222737,18,female
19,44,0,5,0,1.08992165,18,female
19,53,1,5,0,1.513865297,18,female
19,54,1,5,0,1.337994895,18,female
19,64,1,5,0,1.566114599,18,female
19,68,0,5,0,2.132133806,18,female
19,1,1,10,0,39.31218751,18,female
19,2,0,10,0,2.92398455,18,female
19,9,1,10,0,1.435468101,18,female
19,16,1,10,0,2.181795487,18,female
19,26,0,10,0,1.064246784,18,female
19,30,0,10,0,0.840062245,18,female
19,35,0,10,0,0.92203025,18,female
19,38,0,10,0,1.113779264,18,female
19,40,1,10,0,1.048025852,18,female
19,62,1,10,0,1.858375733,18,female
19,6,0,20,0,1.749709225,18,female
19,7,1,20,0,1.363956537,18,female
19,13,0,20,0,1.511555697,18,female
19,15,1,20,0,2.36634583,18,female
19,27,1,20,0,1.229850016,18,female
19,42,0,20,0,1.247657572,18,female
19,43,1,20,0,0.983867214,18,female
19,51,0,20,0,1.812121852,18,female
19,52,1,20,0,1.278400517,18,female
19,70,0,20,1,1.139876143,18,female
19,14,1,40,0,1.903838114,18,female
19,19,1,40,0,0.945596863,18,female
19,21,0,40,0,0.873765318,18,female
19,47,1,40,0,2.292557268,18,female
19,49,0,40,0,2.011885187,18,female
19,50,0,40,0,1.806506787,18,female
19,60,1,40,0,1.666310059,18,female
19,61,0,40,0,1.534402352,18,female
19,63,1,40,1,1.577950279,18,female
19,66,0,40,0,2.006189221,18,female
19,3,0,80,0,2.070601731,18,female
19,5,1,80,0,1.621495791,18,female
19,17,1,80,0,1.814183014,18,female
19,22,0,80,0,0.964432282,18,female
19,24,0,80,0,1.391832028,18,female
19,37,0,80,0,1.242117068,18,female
19,48,1,80,0,1.836375519,18,female
19,56,1,80,0,1.466399412,18,female
19,57,1,80,0,2.280321008,18,female
19,59,0,80,0,1.636011465,18,female
20,3,1,1,0,1.195373857,19,female
20,6,0,1,1,0.77797141,19,female
20,23,0,1,1,1.234489441,19,female
20,28,0,1,1,1.745757457,19,female
20,32,1,1,1,1.414310705,19,female
20,41,1,1,1,1.364457036,19,female
20,51,0,1,1,1.41222328,19,female
20,54,1,1,1,0.886382236,19,female
20,57,0,1,1,1.402718331,19,female
20,67,1,1,1,2.102029013,19,female
20,18,1,2,1,1.305987723,19,female
20,21,1,2,1,1.232365189,19,female
20,27,0,2,1,1.334417144,19,female
20,29,1,2,1,1.148208634,19,female
20,33,1,2,1,1.459834063,19,female
20,36,0,2,1,1.116538951,19,female
20,44,0,2,1,1.177737763,19,female
20,55,1,2,1,1.010212229,19,female
20,63,0,2,1,1.27405964,19,female
20,68,0,2,1,1.474621117,19,female
20,8,0,5,1,1.178199082,19,female
20,12,1,5,1,1.055528505,19,female
20,16,0,5,1,1.44966651,19,female
20,20,0,5,1,1.400112597,19,female
20,34,1,5,1,1.260251547,19,female
20,42,0,5,1,1.691827953,19,female
20,43,1,5,1,1.5065655,19,female
20,45,1,5,1,1.222143904,19,female
20,59,1,5,1,1.134623622,19,female
20,69,0,5,1,1.046066722,19,female
20,9,0,10,0,4.886651503,19,female
20,10,0,10,0,2.425709279,19,female
20,19,1,10,1,1.128058877,19,female
20,25,1,10,1,1.436221868,19,female
20,35,1,10,1,1.817923775,19,female
20,47,1,10,1,1.610166949,19,female
20,49,0,10,1,1.413674969,19,female
20,50,0,10,1,1.607702188,19,female
20,61,0,10,1,1.359996921,19,female
20,62,1,10,1,1.172057192,19,female
20,1,1,20,0,50.50455626,19,female
20,2,0,20,1,1.339842334,19,female
20,4,0,20,0,3.228484663,19,female
20,14,1,20,0,1.980051891,19,female
20,30,0,20,0,1.433753183,19,female
20,39,1,20,0,1.368144064,19,female
20,48,1,20,0,1.341832254,19,female
20,56,0,20,1,3.124133674,19,female
20,65,0,20,0,1.550673696,19,female
20,70,1,20,0,2.055823733,19,female
20,7,1,40,0,1.68593396,19,female
20,11,1,40,0,1.178134419,19,female
20,17,0,40,0,1.433706956,19,female
20,22,1,40,0,1.044142005,19,female
20,24,1,40,0,1.386069348,19,female
20,31,1,40,0,1.754083609,19,female
20,37,0,40,0,2.097757868,19,female
20,40,0,40,0,0.812628087,19,female
20,58,0,40,0,1.546278483,19,female
20,66,0,40,0,1.144658956,19,female
20,5,1,80,0,1.758115673,19,female
20,13,0,80,0,1.288464226,19,female
20,15,0,80,0,1.316355716,19,female
20,26,1,80,0,0.83392555,19,female
20,38,0,80,0,1.414462847,19,female
20,46,1,80,0,0.876205023,19,female
20,52,0,80,0,0.866465219,19,female
20,53,1,80,0,1.630213769,19,female
20,60,1,80,0,1.412793209,19,female
20,64,0,80,0,2.457426017,19,female
21,8,0,1,0,1.344076952,17,female
21,9,0,1,0,1.579711685,17,female
21,10,1,1,0,0.830275652,17,female
21,11,0,1,0,2.250413032,17,female
21,18,1,1,0,1.1459259,17,female
21,33,1,1,0,1.814333345,17,female
21,36,1,1,0,1.386344351,17,female
21,38,1,1,0,1.502323335,17,female
21,44,0,1,0,0.778316144,17,female
21,61,0,1,0,1.525916814,17,female
21,4,1,2,0,3.2159251,17,female
21,5,0,2,0,3.206024098,17,female
21,6,1,2,0,2.072476639,17,female
21,17,0,2,0,2.417596851,17,female
21,25,0,2,0,0.924318719,17,female
21,41,1,2,0,1.288242353,17,female
21,48,0,2,0,1.721754342,17,female
21,66,1,2,0,1.252129761,17,female
21,67,1,2,0,1.41995475,17,female
21,69,0,2,0,2.026735634,17,female
21,13,1,5,0,1.967899852,17,female
21,14,1,5,1,2.055960781,17,female
21,21,1,5,0,2.237811208,17,female
21,28,0,5,0,1.213890805,17,female
21,30,0,5,0,2.270979671,17,female
21,34,1,5,0,1.474107034,17,female
21,35,0,5,0,0.83420176,17,female
21,40,1,5,0,1.550516422,17,female
21,45,0,5,0,1.483552214,17,female
21,56,0,5,0,1.401802762,17,female
21,2,1,10,1,6.617047147,17,female
21,19,0,10,1,2.97639988,17,female
21,24,1,10,0,2.028160154,17,female
21,42,0,10,1,3.336237716,17,female
21,47,1,10,0,0.936462608,17,female
21,49,0,10,1,1.129768663,17,female
21,50,1,10,1,1.209807423,17,female
21,57,0,10,0,1.53989667,17,female
21,58,1,10,1,1.381969967,17,female
21,64,0,10,0,1.55027855,17,female
21,1,0,20,1,49.20084463,17,female
21,12,1,20,1,1.48968106,17,female
21,16,1,20,1,2.294801966,17,female
21,20,0,20,1,1.59827512,17,female
21,22,1,20,1,1.856274423,17,female
21,29,0,20,1,1.831654288,17,female
21,43,0,20,1,1.010251774,17,female
21,52,1,20,1,1.276043825,17,female
21,55,0,20,1,1.539851088,17,female
21,60,1,20,1,1.872416869,17,female
21,3,1,40,1,6.975037847,17,female
21,7,1,40,1,2.401919585,17,female
21,15,0,40,1,1.252452459,17,female
21,23,0,40,1,1.08983924,17,female
21,27,1,40,1,1.416124334,17,female
21,37,1,40,1,1.676026015,17,female
21,46,1,40,1,1.038351554,17,female
21,51,0,40,1,1.121101097,17,female
21,62,0,40,1,1.273808183,17,female
21,68,0,40,1,1.21835092,17,female
21,26,0,80,1,2.112557299,17,female
21,31,0,80,1,1.909639131,17,female
21,32,0,80,1,1.625653433,17,female
21,39,0,80,1,1.824428147,17,female
21,53,1,80,1,1.292183253,17,female
21,54,1,80,1,0.887631973,17,female
21,59,1,80,1,1.555911727,17,female
21,63,0,80,1,1.041732789,17,female
21,65,1,80,1,1.140289402,17,female
21,70,1,80,1,1.434527477,17,female
22,2,1,1,0,12.20614424,19,male
22,11,0,1,1,7.088076023,19,male
22,15,1,1,0,1.800287077,19,male
22,16,0,1,0,2.481952006,19,male
22,21,1,1,1,2.870391026,19,male
22,24,1,1,1,2.652454874,19,male
22,41,1,1,0,3.408428183,19,male
22,47,0,1,0,1.834079503,19,male
22,60,0,1,1,2.818153799,19,male
22,65,0,1,1,0.915715452,19,male
22,6,1,2,1,2.48419761,19,male
22,20,0,2,1,2.956363927,19,male
22,22,0,2,1,8.86646854,19,male
22,23,1,2,1,2.160970449,19,male
22,26,0,2,1,6.478771514,19,male
22,38,0,2,1,1.787674386,19,male
22,48,1,2,0,4.896428437,19,male
22,49,1,2,1,4.022557465,19,male
22,69,1,2,0,3.974390338,19,male
22,70,0,2,0,2.977901678,19,male
22,1,0,5,1,46.71579122,19,male
22,5,1,5,0,5.355731814,19,male
22,18,1,5,0,2.475763389,19,male
22,19,0,5,0,2.126257624,19,male
22,30,1,5,1,1.39745615,19,male
22,36,1,5,1,3.65233624,19,male
22,37,0,5,1,2.047845938,19,male
22,40,0,5,1,1.966281834,19,male
22,42,1,5,1,4.470634332,19,male
22,67,0,5,1,2.501733483,19,male
22,4,0,10,0,4.215835143,19,male
22,9,0,10,0,3.239521296,19,male
22,10,0,10,0,6.946242863,19,male
22,17,1,10,1,1.030270218,19,male
22,31,0,10,1,4.984545514,19,male
22,33,0,10,1,1.886085498,19,male
22,50,1,10,1,9.712450739,19,male
22,51,1,10,1,6.300450238,19,male
22,57,1,10,1,2.296219241,19,male
22,66,1,10,1,4.069861548,19,male
22,7,1,20,1,5.797567539,19,male
22,12,0,20,0,12.14836168,19,male
22,14,0,20,0,8.018733388,19,male
22,25,0,20,1,5.500712562,19,male
22,28,0,20,1,1.876603792,19,male
22,46,0,20,1,1.624000097,19,male
22,52,1,20,1,2.102669277,19,male
22,54,1,20,1,2.481780242,19,male
22,59,1,20,0,2.766435485,19,male
22,64,1,20,1,1.311894998,19,male
22,8,1,40,1,17.33679859,19,male
22,13,0,40,1,2.203783626,19,male
22,27,1,40,1,3.704368799,19,male
22,34,0,40,1,1.216147276,19,male
22,35,1,40,1,1.53058069,19,male
22,43,0,40,1,8.882020228,19,male
22,45,0,40,1,11.6845683,19,male
22,53,1,40,1,11.19677815,19,male
22,56,0,40,1,2.020176624,19,male
22,61,1,40,1,1.998409754,19,male
22,3,0,80,0,17.65966471,19,male
22,29,1,80,1,8.660556435,19,male
22,32,0,80,1,2.094230226,19,male
22,39,1,80,0,4.026433161,19,male
22,44,0,80,1,1.087885845,19,male
22,55,1,80,1,1.912357763,19,male
22,58,0,80,1,1.094562282,19,male
22,62,1,80,0,2.934591322,19,male
22,63,0,80,1,1.258513084,19,male
22,68,1,80,1,3.530125472,19,male
23,5,0,1,1,1.973700567,18,female
23,7,1,1,0,4.685654731,18,female
23,9,1,1,0,1.554167528,18,female
23,14,0,1,1,2.229975594,18,female
23,16,1,1,1,1.141694602,18,female
23,17,0,1,1,2.291503142,18,female
23,25,1,1,1,1.375777426,18,female
23,31,0,1,1,3.816043131,18,female
23,68,0,1,1,0.764650232,18,female
23,69,1,1,1,1.941597702,18,female
23,12,0,2,0,2.403783928,18,female
23,26,1,2,1,0.864324062,18,female
23,29,1,2,1,1.46981989,18,female
23,32,0,2,0,0.636667728,18,female
23,35,0,2,1,1.668480195,18,female
23,47,1,2,1,1.37004765,18,female
23,51,1,2,1,1.067865288,18,female
23,58,0,2,1,0.864381719,18,female
23,64,0,2,1,1.046127096,18,female
23,66,1,2,1,1.2105144,18,female
23,2,0,5,1,6.451038203,18,female
23,10,1,5,1,4.214344212,18,female
23,11,0,5,0,5.821788302,18,female
23,13,1,5,1,2.646091475,18,female
23,18,1,5,1,1.872454905,18,female
23,27,0,5,1,0.852010221,18,female
23,34,1,5,1,1.912022387,18,female
23,40,0,5,1,1.33212626,18,female
23,49,0,5,0,0.990478749,18,female
23,61,1,5,1,2.123817315,18,female
23,1,0,10,0,35.84255478,18,female
23,8,1,10,0,1.891801992,18,female
23,23,0,10,1,1.714150865,18,female
23,24,0,10,1,1.110084387,18,female
23,30,1,10,1,2.760264679,18,female
23,33,0,10,1,1.26456435,18,female
23,39,1,10,1,1.328240904,18,female
23,41,1,10,1,1.04647183,18,female
23,59,0,10,0,0.75805379,18,female
23,63,1,10,1,0.592363016,18,female
23,3,1,20,1,3.609395673,18,female
23,4,0,20,1,5.260187853,18,female
23,22,0,20,0,1.354157265,18,female
23,36,1,20,1,2.080467112,18,female
23,38,1,20,1,1.147712663,18,female
23,43,1,20,1,2.548112036,18,female
23,45,0,20,1,2.826100501,18,female
23,48,0,20,1,0.839824373,18,female
23,62,1,20,0,1.561954542,18,female
23,70,0,20,1,2.981116583,18,female
23,6,1,40,1,1.844342748,18,female
23,21,1,40,1,2.012398666,18,female
23,28,1,40,0,1.21996441,18,female
23,37,0,40,0,2.622086549,18,female
23,42,0,40,1,0.826321167,18,female
23,44,1,40,0,1.651937169,18,female
23,46,0,40,1,1.63975766,18,female
23,50,0,40,1,1.822446075,18,female
23,54,0,40,0,0.850164594,18,female
23,65,1,40,1,1.280638876,18,female
23,15,0,80,0,1.955952178,18,female
23,19,1,80,1,0.805902747,18,female
23,20,0,80,1,1.362199961,18,female
23,52,1,80,1,1.622603047,18,female
23,53,1,80,1,1.440040813,18,female
23,55,0,80,1,1.490146542,18,female
23,56,1,80,1,1.510831211,18,female
23,57,0,80,1,1.907780825,18,female
23,60,1,80,1,2.610521947,18,female
23,67,0,80,1,0.996574088,18,female
24,18,0,1,0,2.787978972,22,male
24,21,0,1,0,1.952354201,22,male
24,22,1,1,0,1.892209515,22,male
24,27,1,1,0,1.52437366,22,male
24,37,1,1,0,1.413761001,22,male
24,46,0,1,0,1.663906578,22,male
24,54,0,1,0,1.895976841,22,male
24,56,0,1,0,0.998225614,22,male
24,57,1,1,0,0.958226761,22,male
24,63,1,1,0,1.190242386,22,male
24,4,1,2,0,3.987791813,22,male
24,13,1,2,0,1.58219335,22,male
24,14,0,2,0,3.360399312,22,male
24,25,1,2,0,1.441925683,22,male
24,26,0,2,0,1.210364371,22,male
24,34,0,2,0,1.187955124,22,male
24,47,1,2,0,1.530482281,22,male
24,51,1,2,0,1.024083111,22,male
24,52,0,2,0,1.260448366,22,male
24,69,0,2,0,1.835782648,22,male
24,1,0,5,0,77.42797752,22,male
24,12,1,5,0,4.93232821,22,male
24,15,1,5,0,1.985770196,22,male
24,33,1,5,0,1.412420401,22,male
24,39,0,5,0,1.804146775,22,male
24,42,1,5,1,4.353607259,22,male
24,44,0,5,0,1.748318816,22,male
24,45,1,5,0,2.611830851,22,male
24,60,0,5,0,1.024519915,22,male
24,67,0,5,0,1.8079787,22,male
24,6,0,10,0,3.532185426,22,male
24,7,1,10,0,1.920327407,22,male
24,10,1,10,0,2.136277563,22,male
24,16,1,10,0,1.64600816,22,male
24,20,1,10,0,2.424337888,22,male
24,31,0,10,0,1.207984134,22,male
24,32,0,10,0,1.970058215,22,male
24,36,0,10,0,1.153985199,22,male
24,59,1,10,0,2.939826938,22,male
24,70,0,10,0,8.743028561,22,male
24,3,1,20,1,11.57241883,22,male
24,9,0,20,0,4.083734844,22,male
24,24,0,20,0,3.054422758,22,male
24,35,0,20,0,2.260045975,22,male
24,38,0,20,0,1.458453314,22,male
24,40,0,20,0,0.863824771,22,male
24,43,1,20,0,1.98648955,22,male
24,49,1,20,0,1.913837525,22,male
24,62,1,20,0,2.004053799,22,male
24,68,1,20,0,1.546578239,22,male
24,8,1,40,1,2.348244858,22,male
24,17,0,40,1,2.025972811,22,male
24,19,0,40,0,2.933954077,22,male
24,30,0,40,0,1.723938364,22,male
24,48,1,40,0,1.089667174,22,male
24,53,1,40,0,1.677827268,22,male
24,55,0,40,0,1.56265035,22,male
24,61,1,40,0,0.690182163,22,male
24,64,1,40,0,2.500078335,22,male
24,66,0,40,0,1.036210699,22,male
24,2,1,80,0,7.364800261,22,male
24,5,0,80,0,11.29792329,22,male
24,11,0,80,0,3.326226532,22,male
24,23,1,80,0,3.488387552,22,male
24,28,0,80,1,1.49040464,22,male
24,29,1,80,0,1.784489064,22,male
24,41,1,80,1,1.658356716,22,male
24,50,0,80,0,1.4582734,22,male
24,58,1,80,0,2.37454248,22,male
24,65,0,80,0,4.866585061,22,male
25,3,0,1,0,5.024482483,24,female
25,5,1,1,0,2.359864099,24,female
25,9,1,1,0,2.345636408,24,female
25,24,1,1,0,1.648398358,24,female
25,27,1,1,0,1.221899994,24,female
25,33,0,1,0,1.498101093,24,female
25,35,0,1,0,2.081906122,24,female
25,40,0,1,0,2.467734579,24,female
25,48,1,1,0,1.316260628,24,female
25,61,0,1,0,1.892443766,24,female
25,2,1,2,0,6.028395008,24,female
25,4,0,2,0,5.224674774,24,female
25,12,0,2,0,2.238050288,24,female
25,19,0,2,0,3.380316329,24,female
25,30,1,2,0,1.54033589,24,female
25,37,0,2,0,1.886497851,24,female
25,41,0,2,0,1.650372884,24,female
25,55,1,2,0,1.503631333,24,female
25,65,1,2,0,1.425863534,24,female
25,70,1,2,0,1.768389484,24,female
25,16,1,5,0,1.301863588,24,female
25,17,1,5,0,1.668102255,24,female
25,26,0,5,0,1.270200849,24,female
25,44,0,5,0,1.363616331,24,female
25,45,0,5,0,1.415774769,24,female
25,50,0,5,0,0.883957624,24,female
25,57,0,5,0,1.49385772,24,female
25,58,1,5,0,1.61612856,24,female
25,66,1,5,0,2.070367782,24,female
25,68,1,5,0,1.120197603,24,female
25,23,0,10,0,1.161907752,24,female
25,29,1,10,0,2.309687128,24,female
25,31,1,10,0,3.575891532,24,female
25,36,0,10,0,1.354364045,24,female
25,38,1,10,0,1.727680031,24,female
25,49,0,10,0,1.27842527,24,female
25,51,1,10,0,1.396568655,24,female
25,52,0,10,0,1.514008081,24,female
25,53,0,10,0,0.903677217,24,female
25,69,1,10,0,0.929747532,24,female
25,8,0,20,0,2.603929731,24,female
25,10,0,20,0,2.996450926,24,female
25,14,1,20,0,1.864059927,24,female
25,39,1,20,0,2.855757623,24,female
25,42,1,20,0,1.439540918,24,female
25,43,0,20,0,1.147660138,24,female
25,46,1,20,0,1.344084801,24,female
25,47,0,20,0,1.929976047,24,female
25,62,1,20,0,0.929644896,24,female
25,67,0,20,0,1.146504885,24,female
25,7,1,40,0,1.412403496,24,female
25,15,0,40,0,2.307539028,24,female
25,21,1,40,0,1.33963495,24,female
25,22,0,40,0,4.184012715,24,female
25,25,0,40,0,1.525922248,24,female
25,32,0,40,0,1.758416033,24,female
25,54,1,40,0,0.972522674,24,female
25,56,0,40,0,1.058550817,24,female
25,59,1,40,0,2.012357008,24,female
25,60,1,40,0,1.08791724,24,female
25,1,0,80,0,47.06857015,24,female
25,6,0,80,0,2.63804576,24,female
25,11,1,80,0,2.563817979,24,female
25,13,0,80,0,1.030337837,24,female
25,18,1,80,0,3.428505492,24,female
25,20,0,80,0,1.562288711,24,female
25,28,1,80,0,1.601757783,24,female
25,34,1,80,0,1.393793875,24,female
25,63,1,80,0,1.517882872,24,female
25,64,0,80,0,2.17011225,24,female
26,3,0,1,0,3.802868359,18,female
26,19,1,1,0,1.77617861,18,female
26,22,1,1,0,2.088409588,18,female
26,31,0,1,1,0.956202729,18,female
26,32,1,1,0,1.34840515,18,female
26,35,0,1,0,9.094397764,18,female
26,39,1,1,1,1.810451309,18,female
26,45,0,1,0,2.036127081,18,female
26,65,1,1,0,1.56869256,18,female
26,66,0,1,0,1.165939213,18,female
26,8,0,2,0,0.994038389,18,female
26,12,1,2,0,9.288471471,18,female
26,18,0,2,0,2.136511209,18,female
26,24,0,2,1,2.366496765,18,female
26,27,1,2,0,1.324539687,18,female
26,38,0,2,0,1.028438175,18,female
26,49,1,2,1,2.021267578,18,female
26,58,1,2,1,1.492016017,18,female
26,61,1,2,1,2.128393347,18,female
26,68,0,2,0,1.650417258,18,female
26,4,1,5,0,3.002208474,18,female
26,5,0,5,1,2.028061442,18,female
26,10,1,5,0,0.820536753,18,female
26,15,1,5,1,1.637916259,18,female
26,26,0,5,0,0.628396819,18,female
26,29,0,5,1,1.659784254,18,female
26,40,0,5,0,0.987926748,18,female
26,44,0,5,1,2.309747804,18,female
26,54,1,5,1,2.552431178,18,female
26,70,1,5,1,4.047884577,18,female
26,25,1,10,0,1.544137628,18,female
26,28,0,10,1,0.583642623,18,female
26,30,0,10,1,0.82371634,18,female
26,47,1,10,1,1.066408166,18,female
26,53,1,10,0,1.517804688,18,female
26,57,0,10,1,1.788460453,18,female
26,63,1,10,0,1.36416543,18,female
26,64,0,10,0,1.12440113,18,female
26,67,1,10,1,4.25074056,18,female
26,69,0,10,0,3.748160938,18,female
26,1,0,20,0,52.28602573,18,female
26,6,1,20,1,1.840141033,18,female
26,16,1,20,1,1.126104275,18,female
26,36,0,20,1,1.670493058,18,female
26,41,1,20,1,1.49772919,18,female
26,46,1,20,1,3.663806357,18,female
26,48,0,20,0,1.004385855,18,female
26,50,0,20,0,0.927527889,18,female
26,56,0,20,1,1.090490673,18,female
26,59,1,20,1,1.292356827,18,female
26,2,0,40,1,2.142255173,18,female
26,7,1,40,0,1.536233792,18,female
26,17,1,40,0,0.677586678,18,female
26,20,0,40,0,1.380259879,18,female
26,21,1,40,1,1.569919356,18,female
26,23,0,40,0,1.500272437,18,female
26,37,1,40,0,1.36598238,18,female
26,52,0,40,1,2.284126368,18,female
26,55,1,40,1,3.898437375,18,female
26,62,0,40,1,1.69248965,18,female
26,9,0,80,0,0.779649802,18,female
26,11,1,80,1,1.759563437,18,female
26,13,0,80,0,1.20633442,18,female
26,14,1,80,1,2.026060655,18,female
26,33,0,80,1,1.087548054,18,female
26,34,0,80,1,1.968282018,18,female
26,42,1,80,0,0.749812162,18,female
26,43,0,80,1,1.464257651,18,female
26,51,1,80,1,1.848596385,18,female
26,60,1,80,1,2.062182,18,female
27,13,0,1,1,1.537725326,19,female
27,17,0,1,1,1.753633522,19,female
27,18,1,1,1,1.560296677,19,female
27,39,1,1,1,1.034464688,19,female
27,48,1,1,1,1.087769928,19,female
27,54,1,1,1,1.252245981,19,female
27,55,1,1,1,1.004012443,19,female
27,59,0,1,1,1.000189272,19,female
27,66,0,1,1,1.030655705,19,female
27,68,0,1,1,1.314616649,19,female
27,4,0,2,1,1.290143524,19,female
27,5,1,2,1,1.723808561,19,female
27,6,0,2,1,1.591587514,19,female
27,8,1,2,1,2.056088472,19,female
27,12,0,2,1,1.234057769,19,female
27,20,1,2,1,1.438168923,19,female
27,26,0,2,1,1.202142063,19,female
27,29,1,2,1,1.082294325,19,female
27,33,1,2,1,1.248138147,19,female
27,52,0,2,1,1.769081065,19,female
27,2,1,5,1,4.071260409,19,female
27,3,0,5,1,2.157855764,19,female
27,7,0,5,1,0.889620686,19,female
27,19,0,5,1,1.352222586,19,female
27,21,1,5,1,1.169703519,19,female
27,24,0,5,1,0.886558225,19,female
27,34,0,5,1,0.760476591,19,female
27,43,1,5,1,1.281884387,19,female
27,46,1,5,1,0.976360335,19,female
27,64,1,5,1,2.400582305,19,female
27,10,1,10,1,1.562065629,19,female
27,22,1,10,1,1.550278248,19,female
27,40,0,10,1,2.14532186,19,female
27,44,1,10,1,1.425714109,19,female
27,45,0,10,1,1.2896874,19,female
27,47,0,10,1,1.269678615,19,female
27,56,1,10,1,0.927656485,19,female
27,60,0,10,1,1.247976044,19,female
27,62,1,10,1,1.38121288,19,female
27,63,0,10,1,1.142414862,19,female
27,11,0,20,1,1.504135153,19,female
27,16,1,20,1,1.39579255,19,female
27,30,1,20,1,1.035829136,19,female
27,31,1,20,1,0.908221252,19,female
27,36,1,20,1,1.066389752,19,female
27,38,0,20,1,1.659983488,19,female
27,42,0,20,1,1.535267207,19,female
27,57,0,20,1,0.80617775,19,female
27,65,0,20,1,0.742657262,19,female
27,69,1,20,1,1.018345788,19,female
27,9,1,40,1,5.57638056,19,female
27,23,1,40,1,1.152464383,19,female
27,25,1,40,1,0.876230079,19,female
27,27,0,40,1,1.236359822,19,female
27,28,0,40,1,1.0876848,19,female
27,37,0,40,1,1.027752932,19,female
27,49,0,40,1,1.036522529,19,female
27,51,1,40,1,1.206181976,19,female
27,67,0,40,1,0.815986681,19,female
27,70,1,40,1,0.822003233,19,female
27,1,0,80,1,55.86770228,19,female
27,14,1,80,1,4.256547313,19,female
27,15,1,80,1,1.720198509,19,female
27,32,0,80,1,1.39167566,19,female
27,35,1,80,1,1.811877037,19,female
27,41,1,80,1,1.115806013,19,female
27,50,0,80,1,0.783870534,19,female
27,53,1,80,1,1.664315308,19,female
27,58,0,80,1,1.410227322,19,female
27,61,0,80,1,1.083771974,19,female
29,3,1,1,1,3.018794063,19,male
29,10,1,1,0,1.594155212,19,male
29,18,0,1,1,0.960134573,19,male
29,19,1,1,0,0.709807272,19,male
29,26,0,1,0,4.602010448,19,male
29,32,0,1,0,2.644414593,19,male
29,33,0,1,0,2.954819565,19,male
29,41,1,1,0,4.545882431,19,male
29,64,0,1,0,4.204226468,19,male
29,65,1,1,1,1.451718314,19,male
29,6,0,2,0,2.510185212,19,male
29,9,0,2,0,1.561533434,19,male
29,17,1,2,0,1.646412362,19,male
29,24,1,2,0,1.372515731,19,male
29,30,1,2,0,2.683942228,19,male
29,42,1,2,0,2.04388602,19,male
29,45,0,2,0,2.452198588,19,male
29,54,0,2,1,1.618315299,19,male
29,55,0,2,0,2.466406355,19,male
29,56,1,2,0,2.476765896,19,male
29,12,0,5,1,1.382203614,19,male
29,16,0,5,1,3.514092001,19,male
29,21,1,5,0,1.539725209,19,male
29,27,1,5,0,2.770611239,19,male
29,31,1,5,0,1.625729504,19,male
29,59,1,5,0,1.14574659,19,male
29,62,0,5,0,2.536571885,19,male
29,66,0,5,0,1.004263296,19,male
29,68,1,5,1,1.646543977,19,male
29,70,0,5,0,0.928137966,19,male
29,1,0,10,0,35.92355107,19,male
29,13,0,10,1,1.708544554,19,male
29,15,1,10,0,1.666288324,19,male
29,22,1,10,1,2.602294808,19,male
29,25,0,10,0,1.658115824,19,male
29,39,0,10,1,2.614216823,19,male
29,40,0,10,0,3.601665713,19,male
29,44,1,10,0,1.93407573,19,male
29,46,1,10,1,1.019678842,19,male
29,48,1,10,0,2.262387573,19,male
29,14,0,20,0,2.226086012,19,male
29,20,0,20,0,1.046135246,19,male
29,28,1,20,0,2.69214884,19,male
29,29,0,20,1,2.268693616,19,male
29,34,0,20,0,1.015654927,19,male
29,36,1,20,1,1.230490884,19,male
29,58,1,20,1,2.878554772,19,male
29,60,0,20,1,0.800270776,19,male
29,63,1,20,0,1.06657027,19,male
29,69,1,20,0,3.114584047,19,male
29,2,1,40,1,1.949529311,19,male
29,7,0,40,0,2.297948649,19,male
29,8,0,40,1,1.642161744,19,male
29,23,1,40,1,2.837973312,19,male
29,35,0,40,0,3.348612233,19,male
29,37,1,40,0,1.716201159,19,male
29,49,0,40,0,1.734115878,19,male
29,50,1,40,1,2.566197009,19,male
29,51,1,40,0,2.95377057,19,male
29,57,0,40,0,1.492170574,19,male
29,4,0,80,1,1.146363007,19,male
29,5,0,80,0,4.059939415,19,male
29,11,1,80,0,1.078280977,19,male
29,38,0,80,0,2.627731198,19,male
29,43,1,80,1,1.610448592,19,male
29,47,0,80,0,2.394040502,19,male
29,52,0,80,0,2.356337363,19,male
29,53,1,80,0,1.697788658,19,male
29,61,1,80,0,1.213872693,19,male
29,67,1,80,0,1.648328929,19,male
30,9,1,1,0,1.355582992,22,male
30,11,0,1,1,4.854303822,22,male
30,15,1,1,0,3.586290316,22,male
30,16,0,1,0,12.00394332,22,male
30,17,0,1,0,1.118348052,22,male
30,27,1,1,1,2.516181538,22,male
30,31,1,1,1,7.146621105,22,male
30,34,0,1,1,3.380527637,22,male
30,41,1,1,1,2.148217992,22,male
30,55,0,1,1,1.529718552,22,male
30,1,0,2,1,39.02089145,22,male
30,2,1,2,0,12.12978285,22,male
30,5,1,2,0,14.68646797,22,male
30,6,0,2,0,1.406352834,22,male
30,29,1,2,1,1.498257763,22,male
30,35,0,2,0,1.544499267,22,male
30,37,1,2,1,3.554018103,22,male
30,46,0,2,1,1.610445574,22,male
30,49,1,2,1,2.088054288,22,male
30,67,0,2,1,1.719953693,22,male
30,13,0,5,0,4.690020361,22,male
30,19,0,5,1,2.345664482,22,male
30,22,0,5,1,2.854492188,22,male
30,24,0,5,1,2.250528346,22,male
30,26,1,5,1,4.042648055,22,male
30,28,0,5,1,2.292352601,22,male
30,51,1,5,1,2.694531794,22,male
30,64,1,5,1,1.353844528,22,male
30,66,1,5,1,1.74581934,22,male
30,68,1,5,1,1.579935672,22,male
30,8,0,10,0,4.475861496,22,male
30,10,1,10,0,4.172505166,22,male
30,23,1,10,1,3.301722012,22,male
30,30,1,10,0,4.58842936,22,male
30,44,1,10,1,3.199874724,22,male
30,53,0,10,1,3.350294851,22,male
30,54,0,10,1,2.320311408,22,male
30,57,0,10,0,4.516399487,22,male
30,60,0,10,1,1.312490284,22,male
30,61,1,10,1,3.094684841,22,male
30,7,0,20,1,5.036454911,22,male
30,12,0,20,1,5.38236934,22,male
30,14,1,20,0,4.379982763,22,male
30,21,1,20,0,4.666757429,22,male
30,32,1,20,0,7.340312344,22,male
30,38,1,20,0,4.660612885,22,male
30,39,0,20,0,13.00068162,22,male
30,59,1,20,0,0.738365892,22,male
30,69,0,20,0,0.881980683,22,male
30,70,0,20,0,1.300670904,22,male
30,4,1,40,0,4.132575441,22,male
30,20,1,40,0,2.380018384,22,male
30,43,1,40,0,1.397719983,22,male
30,45,1,40,0,3.73659211,22,male
30,47,0,40,0,1.028112458,22,male
30,48,0,40,0,1.485743179,22,male
30,56,0,40,0,1.56879912,22,male
30,58,0,40,0,1.534070598,22,male
30,62,1,40,0,0.883963359,22,male
30,63,0,40,0,1.978621334,22,male
30,3,1,80,1,2.296751135,22,male
30,18,1,80,0,5.992188535,22,male
30,25,0,80,0,5.987937314,22,male
30,33,0,80,0,4.318145196,22,male
30,36,0,80,0,3.534560532,22,male
30,40,1,80,0,1.328565715,22,male
30,42,0,80,0,1.658202762,22,male
30,50,1,80,0,2.146548052,22,male
30,52,0,80,0,1.834044486,22,male
30,65,1,80,0,1.044404028,22,male
31,1,1,20,1,35.22088119,22,male
31,2,1,80,1,2.979033083,22,male
31,3,1,40,1,11.19880309,22,male
31,4,1,40,1,10.04954274,22,male
31,5,1,10,0,2.578265129,22,male
31,6,1,40,1,1.824287476,22,male
31,7,1,40,1,2.350567438,22,male
31,8,0,10,0,1.780099285,22,male
31,9,1,80,1,1.237950068,22,male
31,10,0,40,1,1.704231147,22,male
31,11,1,10,1,1.209971338,22,male
31,12,1,10,1,2.607859462,22,male
31,13,1,1,1,1.352202663,22,male
31,14,1,20,1,2.000171462,22,male
31,15,1,80,1,1.807538877,22,male
31,16,0,20,1,1.253951541,22,male
31,17,0,1,1,2.702287413,22,male
31,18,1,40,1,5.581823862,22,male
31,19,1,5,0,1.626276793,22,male
31,20,1,80,1,3.031609913,22,male
31,21,1,80,1,4.154090552,22,male
31,22,0,40,1,2.826011148,22,male
31,23,1,1,0,1.88560613,22,male
31,24,0,10,0,1.515843143,22,male
31,25,0,80,1,1.913638291,22,male
31,26,0,40,1,1.538307028,22,male
31,27,0,5,0,2.35201641,22,male
31,28,0,1,0,1.914302705,22,male
31,29,0,2,1,1.041884931,22,male
31,30,0,5,1,1.531306685,22,male
31,31,0,10,1,1.450538912,22,male
31,32,1,20,1,1.639998249,22,male
31,33,1,20,1,1.15460071,22,male
31,34,0,20,1,1.178408214,22,male
31,35,0,5,1,1.985768989,22,male
31,36,0,2,0,1.254393175,22,male
31,37,0,2,1,1.39174509,22,male
31,38,0,80,1,1.417669903,22,male
31,39,1,5,1,1.732709773,22,male
31,40,1,2,1,1.836370387,22,male
31,41,1,2,0,0.813986799,22,male
31,42,1,2,1,1.688322046,22,male
31,43,0,1,1,1.510268528,22,male
31,44,0,5,1,1.136316805,22,male
31,45,1,1,1,1.026170233,22,male
31,46,0,20,1,1.626385767,22,male
31,47,0,20,1,2.811719763,22,male
31,48,1,10,1,1.607996812,22,male
31,49,0,80,1,1.397701871,22,male
31,50,0,1,1,1.618125424,22,male
31,51,0,80,1,1.701722012,22,male
31,52,1,10,1,1.444335201,22,male
31,53,0,2,0,2.202123045,22,male
31,54,0,10,1,1.363686666,22,male
31,55,0,40,1,1.629781492,22,male
31,56,0,1,1,1.678533339,22,male
31,57,0,5,1,0.90171205,22,male
31,58,1,5,1,1.338185979,22,male
31,59,0,80,1,1.868282169,22,male
31,60,0,20,1,1.478389348,22,male
31,61,1,1,0,2.891810444,22,male
31,62,0,10,1,1.728580506,22,male
31,63,1,5,1,1.310311393,22,male
31,64,1,1,0,2.520419175,22,male
31,65,0,2,1,1.273790071,22,male
31,66,1,2,1,1.808461691,22,male
31,67,1,2,1,1.202564075,22,male
31,68,0,40,1,2.164022646,22,male
31,69,1,5,1,2.092107785,22,male
31,70,1,20,1,1.482037133,22,male
32,1,1,2,1,36.55452222,19,male
32,2,0,1,1,4.322666892,19,male
32,3,1,10,1,2.492756804,19,male
32,4,1,1,1,1.764442244,19,male
32,5,0,10,1,2.295962653,19,male
32,6,1,40,0,11.43612497,19,male
32,7,0,40,1,5.108268042,19,male
32,8,1,10,1,1.739522956,19,male
32,9,0,5,1,0.989768753,19,male
32,10,1,1,1,0.859834968,19,male
32,11,1,20,1,1.331620327,19,male
32,12,1,80,1,9.516805803,19,male
32,13,0,40,1,1.271833356,19,male
32,14,0,1,1,0.913786811,19,male
32,15,0,20,1,0.695735345,19,male
32,16,1,1,1,0.923663362,19,male
32,17,0,10,1,1.343823383,19,male
32,18,1,2,1,1.131463657,19,male
32,19,1,1,1,0.738079117,19,male
32,20,0,20,1,1.019533944,19,male
32,21,0,5,1,1.352188173,19,male
32,22,0,20,1,0.767938491,19,male
32,23,0,80,1,1.17043525,19,male
32,24,0,20,1,1.071581597,19,male
32,25,1,5,1,1.00611315,19,male
32,26,0,40,1,0.846014499,19,male
32,27,0,2,1,1.220241525,19,male
32,28,1,40,1,1.4746184,19,male
32,29,0,5,1,1.036450383,19,male
32,30,1,5,1,0.9998385,19,male
32,31,0,1,1,1.436315749,19,male
32,32,0,1,1,1.166669434,19,male
32,33,1,20,1,1.005842373,19,male
32,34,0,80,1,1.147581954,19,male
32,35,1,80,1,1.266382205,19,male
32,36,0,10,1,0.841561931,19,male
32,37,1,10,1,0.732359906,19,male
32,38,0,2,1,0.891871422,19,male
32,39,0,80,1,1.403605222,19,male
32,40,1,10,1,1.022379362,19,male
32,41,1,40,1,1.10038926,19,male
32,42,1,5,1,1.46776718,19,male
32,43,0,40,1,1.029657122,19,male
32,44,0,5,1,0.764549106,19,male
32,45,0,20,1,0.865634174,19,male
32,46,0,5,1,1.096231316,19,male
32,47,0,10,1,0.820505359,19,male
32,48,1,5,1,0.705640272,19,male
32,49,1,20,1,0.69409831,19,male
32,50,0,2,1,0.929957633,19,male
32,51,1,40,1,0.866525593,19,male
32,52,0,80,1,0.87607854,19,male
32,53,1,20,1,1.315807522,19,male
32,54,1,80,1,0.741962662,19,male
32,55,0,2,1,1.256475468,19,male
32,56,1,80,1,0.896431455,19,male
32,57,1,80,1,1.253905355,19,male
32,58,1,5,1,1.170534565,19,male
32,59,1,2,1,0.929715232,19,male
32,60,1,40,1,1.279837715,19,male
32,61,1,2,1,0.760290036,19,male
32,62,0,1,1,0.580156338,19,male
32,63,0,80,1,0.640334229,19,male
32,64,1,1,1,1.156074737,19,male
32,65,0,10,1,1.122083077,19,male
32,66,0,2,1,0.721853355,19,male
32,67,1,2,1,0.896471,19,male
32,68,1,10,1,0.546209959,19,male
32,69,1,20,1,0.591870667,19,male
32,70,0,40,1,0.668240209,19,male
33,1,0,2,1,39.34012971,20,male
33,2,1,80,1,15.81712231,20,male
33,3,1,2,0,8.413384269,20,male
33,4,0,5,0,11.46613316,20,male
33,5,1,2,1,10.36198594,20,male
33,6,0,20,0,17.17432453,20,male
33,7,0,80,1,6.490407961,20,male
33,8,1,10,1,6.524209443,20,male
33,9,1,40,1,15.73469879,20,male
33,10,0,40,0,5.014281423,20,male
33,11,1,2,0,2.427967259,20,male
33,12,1,5,1,5.46454654,20,male
33,13,0,80,1,2.876397012,20,male
33,14,0,40,1,2.770267713,20,male
33,15,1,1,1,2.879903221,20,male
33,16,0,10,1,2.998031814,20,male
33,17,1,40,0,1.273985984,20,male
33,18,0,5,1,8.148150373,20,male
33,19,0,1,0,2.029862695,20,male
33,20,0,5,1,2.112172415,20,male
33,21,1,10,0,1.956809788,20,male
33,22,1,80,0,2.678205509,20,male
33,23,1,20,0,6.438245598,20,male
33,24,1,5,0,5.828169512,20,male
33,25,1,40,0,6.262325689,20,male
33,26,0,5,0,4.60989104,20,male
33,27,0,80,0,7.080109397,20,male
33,28,1,1,1,2.760088085,20,male
33,29,0,40,1,4.104135153,20,male
33,30,1,10,1,3.092488442,20,male
33,31,0,20,0,1.131725981,20,male
33,32,1,80,1,5.21606396,20,male
33,33,1,20,0,1.875851535,20,male
33,34,1,40,0,3.522296499,20,male
33,35,0,20,0,1.895868168,20,male
33,36,0,10,1,2.472552106,20,male
33,37,1,1,1,2.94134866,20,male
33,38,0,5,0,2.154359819,20,male
33,39,1,5,1,2.487906674,20,male
33,40,1,2,1,0.874206349,20,male
33,41,0,10,0,1.427719123,20,male
33,42,1,20,0,1.728450401,20,male
33,43,0,80,0,1.768090331,20,male
33,44,1,80,1,1.270042971,20,male
33,45,0,1,0,2.072336874,20,male
33,46,0,10,1,2.873980852,20,male
33,47,1,10,1,2.297878012,20,male
33,48,0,1,0,1.031788619,20,male
33,49,0,2,1,0.878320522,20,male
33,50,0,40,0,1.995742439,20,male
33,51,1,40,1,1.649772466,20,male
33,52,0,40,0,1.714576802,20,male
33,53,1,10,1,1.193722936,20,male
33,54,0,2,0,0.838178583,20,male
33,55,0,1,0,1.574224612,20,male
33,56,1,1,1,1.320168322,20,male
33,57,0,20,0,2.65866915,20,male
33,58,1,80,1,1.571885127,20,male
33,59,1,5,0,1.724449429,20,male
33,60,0,80,0,1.508637831,20,male
33,61,0,2,0,1.488199185,20,male
33,62,1,1,1,1.700524196,20,male
33,63,0,2,1,3.458697828,20,male
33,64,1,2,1,1.032645022,20,male
33,65,1,5,0,1.772560106,20,male
33,66,0,20,0,2.552751763,20,male
33,67,0,10,1,1.960099255,20,male
33,68,1,20,1,2.620170284,20,male
33,69,0,1,0,1.946270635,20,male
33,70,1,20,1,1.742244306,20,male
34,1,1,40,1,62.4948231,20,female
34,2,0,1,1,3.921057025,20,female
34,3,0,80,1,2.838918766,20,female
34,4,0,2,0,0.458173783,20,female
34,5,1,10,1,1.431791034,20,female
34,6,0,1,1,0.920472908,20,female
34,7,0,5,0,0.707584912,20,female
34,8,1,40,1,3.600464275,20,female
34,9,1,10,1,1.391541328,20,female
34,10,1,2,1,1.403796607,20,female
34,11,1,10,0,3.924032849,20,female
34,12,1,10,1,1.036174474,20,female
34,13,1,20,1,2.209524873,20,female
34,14,0,20,1,1.747642931,20,female
34,15,0,10,1,1.676224041,20,female
34,16,1,2,1,1.302331485,20,female
34,17,1,40,1,1.155809696,20,female
34,18,1,5,0,2.083356602,20,female
34,19,1,10,1,1.414165808,20,female
34,20,1,80,0,2.227823268,20,female
34,21,1,40,0,2.674135409,20,female
34,22,0,5,1,1.803919769,20,female
34,23,1,5,1,1.531996456,20,female
34,24,0,2,1,1.180385155,20,female
34,25,1,20,1,1.399750958,20,female
34,26,0,10,1,1.28185571,20,female
34,27,0,20,1,1.734244475,20,female
34,28,0,40,0,2.191931041,20,female
34,29,1,2,1,1.269537039,20,female
34,30,1,20,1,1.602313222,20,female
34,31,0,40,1,2.896450171,20,female
34,32,0,5,1,1.364552728,20,female
34,33,0,80,0,2.290264573,20,female
34,34,0,40,1,1.728228527,20,female
34,35,0,40,1,1.455976177,20,female
34,36,0,80,1,1.70959385,20,female
34,37,1,80,1,3.302457667,20,female
34,38,1,20,1,0.968166402,20,female
34,39,1,5,1,1.094005938,20,female
34,40,1,5,1,0.987769475,20,female
34,41,1,1,1,1.463670214,20,female
34,42,0,10,1,1.3277235,20,female
34,43,0,20,0,1.928255695,20,female
34,44,0,80,1,2.138471547,20,female
34,45,0,40,1,1.164521636,20,female
34,46,0,80,0,1.927875038,20,female
34,47,0,5,1,0.855867504,20,female
34,48,1,1,1,1.139911764,20,female
34,49,0,1,1,1.240316117,20,female
34,50,0,10,1,1.417566966,20,female
34,51,1,80,1,1.711727159,20,female
34,52,1,2,1,1.337715063,20,female
34,53,0,20,1,1.019714764,20,female
34,54,0,2,1,1.133987584,20,female
34,55,0,5,1,1.3536785,20,female
34,56,0,1,0,1.744434969,20,female
34,57,1,1,1,1.198511786,20,female
34,58,1,1,1,0.826326903,20,female
34,59,0,1,1,1.267789821,20,female
34,60,1,80,1,2.406061228,20,female
34,61,1,80,1,1.136506077,20,female
34,62,1,20,0,1.284543551,20,female
34,63,0,20,1,1.482687359,20,female
34,64,0,2,1,1.762589674,20,female
34,65,1,40,1,1.544518285,20,female
34,66,0,2,1,1.037773173,20,female
34,67,0,10,1,1.42276183,20,female
34,68,1,5,1,2.428705329,20,female
34,69,1,1,0,2.346779586,20,female
34,70,1,2,1,1.045737081,20,female
35,1,0,20,1,47.17694717,19,female
35,2,1,80,0,3.674960417,19,female
35,3,0,80,1,3.166730411,19,female
35,4,0,20,0,5.566282136,19,female
35,5,0,1,0,3.426341091,19,female
35,6,0,2,1,4.709620415,19,female
35,7,1,40,0,5.192264606,19,female
35,8,0,80,1,2.360498024,19,female
35,9,1,20,1,2.654262164,19,female
35,10,0,1,0,2.824091563,19,female
35,11,1,20,1,4.140434903,19,female
35,12,0,80,1,1.292321509,19,female
35,13,1,1,1,1.149764769,19,female
35,14,1,80,1,1.532203538,19,female
35,15,0,2,1,2.163840016,19,female
35,16,1,1,0,2.854551958,19,female
35,17,1,10,0,1.077934733,19,female
35,18,1,2,0,1.661588224,19,female
35,19,1,5,1,1.844101555,19,female
35,20,1,40,1,2.048033399,19,female
35,21,1,2,0,0.975826027,19,female
35,22,0,5,0,3.034346054,19,female
35,23,0,40,1,1.538035044,19,female
35,24,0,20,1,1.896665102,19,female
35,25,0,80,1,5.562414892,19,female
35,26,1,10,0,2.170465437,19,female
35,27,1,1,0,1.441708337,19,female
35,28,0,40,1,3.397861862,19,female
35,29,0,5,0,1.06453688,19,female
35,30,1,1,1,0.961871829,19,female
35,31,0,40,1,2.111684897,19,female
35,32,0,20,0,0.950413787,19,female
35,33,0,1,0,1.922486978,19,female
35,34,0,2,1,0.895554224,19,female
35,35,1,5,1,1.297520599,19,female
35,36,0,10,0,2.573690605,19,female
35,37,0,5,0,1.458043677,19,female
35,38,1,20,1,1.258650434,19,female
35,39,1,20,1,0.870368688,19,female
35,40,1,20,1,5.61812814,19,female
35,41,0,2,0,0.510033372,19,female
35,42,1,1,0,1.012338896,19,female
35,43,0,80,1,1.433792728,19,female
35,44,1,2,0,0.524107713,19,female
35,45,1,10,0,1.654550751,19,female
35,46,1,40,0,1.24190908,19,female
35,47,0,10,1,1.504351895,19,female
35,48,0,10,0,11.970572,19,female
35,49,0,1,1,1.026076654,19,female
35,50,1,40,1,2.147763981,19,female
35,51,0,40,1,2.068216965,19,female
35,52,1,5,0,0.961927977,19,female
35,53,1,2,0,0.974143107,19,female
35,54,1,40,1,2.624362943,19,female
35,55,0,2,1,1.631802203,19,female
35,56,0,10,0,1.049749524,19,female
35,57,1,80,0,1.177858511,19,female
35,58,1,5,1,1.969796495,19,female
35,59,0,20,1,1.166702639,19,female
35,60,1,80,1,1.098021701,19,female
35,61,1,10,0,1.224238271,19,female
35,62,0,1,1,1.415841483,19,female
35,63,1,2,1,2.652749498,19,female
35,64,0,40,0,1.764345948,19,female
35,65,1,80,0,1.748026003,19,female
35,66,0,10,1,1.809888022,19,female
35,67,0,5,1,0.712294069,19,female
35,68,1,10,1,0.818637092,19,female
35,69,1,5,1,1.858621757,19,female
35,70,0,5,1,0.7177905,19,female
36,1,1,10,1,80.04043173,18,female
36,2,0,20,1,16.7948643,18,female
36,3,1,1,1,1.215314117,18,female
36,4,0,40,0,12.17699969,18,female
36,5,0,5,1,1.094087141,18,female
36,6,1,5,1,2.525820216,18,female
36,7,0,20,0,9.302332693,18,female
36,8,0,2,1,1.164087246,18,female
36,9,1,10,1,1.606202201,18,female
36,10,0,1,1,1.247825713,18,female
36,11,0,80,0,15.3263177,18,female
36,12,1,10,1,1.605788037,18,female
36,13,0,2,1,1.755736342,18,female
36,14,0,1,1,1.242357054,18,female
36,15,0,20,1,0.980283727,18,female
36,16,0,20,1,1.061563772,18,female
36,17,1,5,0,3.533752126,18,female
36,18,1,20,1,1.811579092,18,female
36,19,0,10,1,1.02845508,18,female
36,20,1,80,1,1.4815472,18,female
36,21,1,1,1,1.05812488,18,female
36,22,0,1,1,1.360243246,18,female
36,23,1,40,1,1.024191482,18,female
36,24,0,10,1,2.068420425,18,female
36,25,1,1,1,1.371892975,18,female
36,26,1,80,1,1.17353786,18,female
36,27,1,20,1,2.148464015,18,female
36,28,0,80,1,1.25535976,18,female
36,29,1,40,1,1.393919754,18,female
36,30,1,20,1,1.060431763,18,female
36,31,1,40,1,6.11175644,18,female
36,32,0,2,1,1.198231953,18,female
36,33,0,1,1,4.50198826,18,female
36,34,1,5,1,1.831263065,18,female
36,35,0,5,1,1.046007858,18,female
36,36,0,80,1,2.203755854,18,female
36,37,1,1,0,1.450237948,18,female
36,38,0,40,1,1.274263704,18,female
36,39,1,20,1,1.076629451,18,female
36,40,1,80,1,1.462363423,18,female
36,41,1,20,1,1.174535235,18,female
36,42,1,10,1,0.963681534,18,female
36,43,1,80,0,2.822306611,18,female
36,44,0,40,1,1.274169822,18,female
36,45,0,40,1,1.936266092,18,female
36,46,1,2,0,1.812258901,18,female
36,47,0,10,0,1.230350515,18,female
36,48,0,20,0,7.834302886,18,female
36,49,0,10,1,2.85600576,18,female
36,50,0,1,0,1.269733555,18,female
36,51,1,5,1,1.715683756,18,female
36,52,0,80,0,0.592251928,18,female
36,53,0,2,0,1.027927111,18,female
36,54,1,80,1,1.945896921,18,female
36,55,0,5,0,1.229354951,18,female
36,56,1,2,0,2.960552964,18,female
36,57,1,5,1,1.194513229,18,female
36,58,1,10,1,1.389797733,18,female
36,59,0,10,0,1.748060416,18,female
36,60,0,5,1,1.691817085,18,female
36,61,0,80,1,2.936274846,18,female
36,62,0,5,1,2.157971983,18,female
36,63,1,40,0,3.506371097,18,female
36,64,0,2,0,1.322500562,18,female
36,65,0,40,0,0.426473008,18,female
36,66,1,40,1,2.450190253,18,female
36,67,1,2,1,1.222028892,18,female
36,68,1,2,1,0.802186739,18,female
36,69,1,1,1,0.948753205,18,female
36,70,1,2,1,0.56027132,18,female
37,1,0,20,1,45.8604867,21,male
37,2,1,80,0,2.639510127,21,male
37,3,1,20,1,4.988932878,21,male
37,4,0,20,0,2.466508085,21,male
37,5,1,40,1,4.131981061,21,male
37,6,1,40,1,2.593534267,21,male
37,7,1,20,0,3.199810426,21,male
37,8,0,40,1,10.20821204,21,male
37,9,1,2,0,3.252456686,21,male
37,10,1,2,1,1.674801031,21,male
37,11,1,1,1,2.825837573,21,male
37,12,0,40,1,4.137684574,21,male
37,13,1,40,1,1.629873562,21,male
37,14,0,20,1,0.919781326,21,male
37,15,1,10,0,1.138455849,21,male
37,16,0,5,0,1.471745814,21,male
37,17,0,10,0,1.118289188,21,male
37,18,1,5,0,2.07636592,21,male
37,19,1,80,0,5.662024122,21,male
37,20,0,10,1,2.215822465,21,male
37,21,0,80,0,7.606551765,21,male
37,22,1,2,1,1.681869897,21,male
37,23,0,1,0,0.826020506,21,male
37,24,1,5,0,1.526365995,21,male
37,25,0,2,1,1.073872783,21,male
37,26,0,2,0,1.612124569,21,male
37,27,0,80,0,1.350202177,21,male
37,28,0,10,0,2.30596297,21,male
37,29,0,5,0,1.128379763,21,male
37,30,0,1,1,1.021980895,21,male
37,31,0,10,0,13.32007504,21,male
37,32,0,80,1,1.107913647,21,male
37,33,0,20,1,1.216279193,21,male
37,34,0,5,0,1.25764038,21,male
37,35,1,40,1,1.505880559,21,male
37,36,1,10,1,1.272265331,21,male
37,37,1,1,0,1.942558249,21,male
37,38,0,1,1,2.246320896,21,male
37,39,1,5,1,1.159952244,21,male
37,40,0,5,1,1.324223329,21,male
37,41,1,10,1,1.428436666,21,male
37,42,1,5,0,0.675667093,21,male
37,43,1,20,1,1.489908669,21,male
37,44,1,1,1,1.481719567,21,male
37,45,1,20,1,1.612199131,21,male
37,46,0,2,1,2.166080185,21,male
37,47,0,40,1,1.297710474,21,male
37,48,0,2,1,0.857975455,21,male
37,49,1,20,1,1.693640676,21,male
37,50,1,80,1,1.150184367,21,male
37,51,1,10,1,1.157679472,21,male
37,52,0,10,1,0.836214925,21,male
37,53,0,80,1,0.951792725,21,male
37,54,0,40,1,1.189777205,21,male
37,55,1,10,1,1.034412465,21,male
37,56,1,2,1,0.791694979,21,male
37,57,1,80,1,1.592174046,21,male
37,58,0,2,1,1.33414033,21,male
37,59,1,80,1,1.195720705,21,male
37,60,0,80,1,1.666410883,21,male
37,61,1,1,1,1.392420371,21,male
37,62,0,40,1,0.784161536,21,male
37,63,0,1,1,4.620379178,21,male
37,64,0,5,1,0.895896543,21,male
37,65,0,1,1,1.56451258,21,male
37,66,1,40,1,1.51858351,21,male
37,67,1,2,1,1.669744121,21,male
37,68,1,5,1,0.750434314,21,male
37,69,0,20,1,0.941986208,21,male
37,70,1,1,1,0.858285173,21,male
38,1,1,1,1,49.30748982,18,female
38,2,1,5,1,4.664215088,18,female
38,3,0,5,0,3.294550509,18,female
38,4,0,10,0,1.165953099,18,female
38,5,0,5,1,9.430190223,18,female
38,6,1,2,0,3.545937673,18,female
38,7,1,40,1,2.052058822,18,female
38,8,0,1,0,1.349664246,18,female
38,9,1,40,1,1.07582165,18,female
38,10,0,1,1,2.004120512,18,female
38,11,0,10,0,2.098317231,18,female
38,12,0,2,0,1.459824705,18,female
38,13,0,20,1,1.633784879,18,female
38,14,0,40,1,0.970074818,18,female
38,15,1,1,0,4.250460124,18,female
38,16,0,2,1,1.530211505,18,female
38,17,1,5,0,1.21751927,18,female
38,18,0,1,1,1.510334637,18,female
38,19,1,10,1,1.801970299,18,female
38,20,0,40,0,1.34392149,18,female
38,21,1,20,1,2.243666863,18,female
38,22,1,40,1,1.366072639,18,female
38,23,1,2,1,1.346176452,18,female
38,24,0,80,1,3.388362346,18,female
38,25,0,20,1,1.730426737,18,female
38,26,1,5,1,2.070439023,18,female
38,27,1,40,1,2.000028979,18,female
38,28,0,1,0,2.008328566,18,female
38,29,1,5,1,1.024109977,18,female
38,30,1,40,1,2.276220419,18,female
38,31,0,1,1,2.874110656,18,female
38,32,1,80,0,1.933766012,18,female
38,33,1,10,1,2.769738536,18,female
38,34,0,2,0,0.591641549,18,female
38,35,1,80,1,1.555733323,18,female
38,36,0,10,1,0.830272331,18,female
38,37,0,10,0,0.506075265,18,female
38,38,0,5,1,1.638547165,18,female
38,39,1,80,1,1.464648572,18,female
38,40,0,40,0,1.872148809,18,female
38,41,1,2,1,0.814563973,18,female
38,42,0,80,1,1.738300387,18,female
38,43,1,20,1,0.66603898,18,female
38,44,0,2,1,1.392090428,18,female
38,45,1,20,0,1.020098439,18,female
38,46,0,2,1,0.984193836,18,female
38,47,1,10,1,1.053487568,18,female
38,48,1,20,0,1.190610968,18,female
38,49,0,20,1,1.321909201,18,female
38,50,1,1,1,0.635865964,18,female
38,51,1,10,1,0.842404145,18,female
38,52,0,80,0,1.048247424,18,female
38,53,1,80,1,1.106251557,18,female
38,54,1,10,1,1.078435232,18,female
38,55,1,1,0,2.376507043,18,female
38,56,1,5,1,1.251928113,18,female
38,57,0,20,1,1.321734117,18,female
38,58,1,2,1,1.148026003,18,female
38,59,1,80,1,1.009845458,18,female
38,60,1,20,1,2.515707604,18,female
38,61,0,5,1,1.770236318,18,female
38,62,0,80,1,0.943636224,18,female
38,63,0,40,0,0.57243483,18,female
38,64,0,40,0,0.76048293,18,female
38,65,0,10,1,0.959817913,18,female
38,66,0,20,0,0.588287482,18,female
38,67,1,2,1,1.071833054,18,female
38,68,1,1,0,0.790249932,18,female
38,69,0,80,1,0.719931657,18,female
38,70,0,5,1,0.838061759,18,female
39,1,0,5,1,50.07326452,19,female
39,2,1,80,1,2.817674129,19,female
39,3,0,10,0,1.886788249,19,female
39,4,1,80,1,2.198273913,19,female
39,5,1,20,0,1.693523551,19,female
39,6,1,2,0,1.878080536,19,female
39,7,1,10,0,1.49812645,19,female
39,8,1,20,0,3.665498635,19,female
39,9,0,5,0,1.487526319,19,female
39,10,0,40,1,1.56029396,19,female
39,11,0,80,1,1.795632861,19,female
39,12,1,10,0,1.848345833,19,female
39,13,1,40,0,1.591942512,19,female
39,14,1,10,0,2.722198391,19,female
39,15,0,2,0,1.361443477,19,female
39,16,0,5,0,1.051689938,19,female
39,17,1,2,1,2.325170896,19,female
39,18,1,10,0,2.647682929,19,female
39,19,1,5,1,7.80627314,19,female
39,20,1,1,1,2.159587587,19,female
39,21,0,1,1,1.088058514,19,female
39,22,0,40,1,1.725708826,19,female
39,23,1,1,1,1.408321623,19,female
39,24,1,1,0,1.482410243,19,female
39,25,1,40,1,2.469955127,19,female
39,26,1,10,1,4.558662056,19,female
39,27,0,10,0,1.446441945,19,female
39,28,0,2,1,1.943919075,19,female
39,29,1,1,1,1.533640133,19,female
39,30,0,20,0,2.228447533,19,female
39,31,0,40,1,1.488413814,19,female
39,32,1,5,1,1.475725052,19,female
39,33,0,10,1,1.529935294,19,female
39,34,0,2,0,1.548207124,19,female
39,35,0,1,0,1.628681481,19,female
39,36,1,20,1,3.020366499,19,female
39,37,0,40,0,1.497596368,19,female
39,38,0,2,0,3.706505126,19,female
39,39,1,20,1,2.834107275,19,female
39,40,0,5,0,1.472260501,19,female
39,41,0,20,1,0.909969375,19,female
39,42,1,1,0,1.947621498,19,female
39,43,0,1,1,1.732011851,19,female
39,44,1,5,0,1.827998956,19,female
39,45,0,1,0,2.224514481,19,female
39,46,1,80,0,1.91181621,19,female
39,47,1,5,0,1.358402147,19,female
39,48,0,1,0,1.468649845,19,female
39,49,0,80,1,2.73367364,19,female
39,50,0,10,0,2.213986497,19,female
39,51,0,40,0,1.774370414,19,female
39,52,1,80,0,1.161775231,19,female
39,53,0,10,0,2.431923857,19,female
39,54,1,5,0,1.506131111,19,female
39,55,1,20,1,0.940267969,19,female
39,56,0,80,1,1.782101582,19,female
39,57,1,2,1,0.770383932,19,female
39,58,0,2,1,1.998285686,19,female
39,59,0,20,0,1.411877037,19,female
39,60,1,40,1,0.744099291,19,female
39,61,1,2,0,2.18009687,19,female
39,62,0,20,0,1.045831868,19,female
39,63,0,20,0,3.130697816,19,female
39,64,1,80,0,1.015858689,19,female
39,65,1,40,0,1.458504933,19,female
39,66,0,80,0,1.472098095,19,female
39,67,1,40,1,1.336480419,19,female
39,68,1,2,0,1.598090075,19,female
39,69,0,5,1,1.814007025,19,female
39,70,0,80,1,1.424735751,19,female
40,1,1,80,1,65.00204426,17,female
40,2,0,10,1,6.385075294,17,female
40,3,0,80,1,5.055417417,17,female
40,4,0,20,0,3.967942114,17,female
40,5,1,20,0,0.967919172,17,female
40,6,0,80,1,2.050439597,17,female
40,7,0,80,0,0.944023522,17,female
40,8,1,20,0,0.968027844,17,female
40,9,0,2,0,0.976098011,17,female
40,10,0,40,0,1.531129186,17,female
40,11,1,10,0,1.184511704,17,female
40,12,0,2,0,1.064060531,17,female
40,13,0,10,0,1.968022109,17,female
40,14,1,10,0,1.037479454,17,female
40,15,0,1,0,0.817897211,17,female
40,16,0,80,0,1.261667313,17,female
40,17,1,5,1,1.334493818,17,female
40,18,1,1,1,1.169873773,17,female
40,19,1,10,1,1.082262327,17,female
40,20,0,20,0,1.412284258,17,female
40,21,1,80,0,1.297542333,17,female
40,22,0,5,1,1.183854837,17,female
40,23,0,20,0,1.437796718,17,female
40,24,0,1,1,2.001433576,17,female
40,25,0,80,0,1.819658918,17,female
40,26,0,5,1,1.450144369,17,female
40,27,1,2,1,1.389699323,17,female
40,28,0,20,0,1.482045283,17,female
40,29,0,10,1,1.338308235,17,female
40,30,0,5,1,1.114183769,17,female
40,31,1,2,1,0.874110958,17,female
40,32,0,40,0,1.248074755,17,female
40,33,1,2,1,1.227953071,17,female
40,34,1,20,0,1.729554034,17,female
40,35,1,2,1,1.448179503,17,female
40,36,0,5,1,1.024435694,17,female
40,37,1,5,1,1.224450787,17,female
40,38,0,20,0,1.528056763,17,female
40,39,0,2,1,1.891702677,17,female
40,40,1,10,1,1.337945691,17,female
40,41,1,10,1,1.223783355,17,female
40,42,1,80,0,1.263662365,17,female
40,43,0,2,1,1.164588651,17,female
40,44,1,1,1,1.258196423,17,female
40,45,0,5,1,0.870579996,17,female
40,46,0,1,1,1.097598783,17,female
40,47,1,40,0,1.318175987,17,female
40,48,1,1,1,1.043980505,17,female
40,49,1,40,0,1.072137036,17,female
40,50,1,80,0,1.493527777,17,female
40,51,1,5,1,1.166126673,17,female
40,52,1,40,0,1.285620016,17,female
40,53,1,1,1,1.185789818,17,female
40,54,1,40,0,1.266457975,17,female
40,55,1,2,1,1.20758778,17,female
40,56,1,5,1,0.935691635,17,female
40,57,1,20,0,1.54423483,17,female
40,58,0,1,1,1.105689476,17,female
40,59,0,40,0,1.312291956,17,female
40,60,0,2,1,1.135925583,17,female
40,61,0,40,0,1.258474746,17,female
40,62,0,10,1,1.428165889,17,female
40,63,0,40,0,1.376585831,17,female
40,64,0,10,1,1.718952092,17,female
40,65,1,1,1,1.351179327,17,female
40,66,0,1,1,0.812033103,17,female
40,67,1,80,0,1.244603865,17,female
40,68,1,5,1,1.306224388,17,female
40,69,1,20,0,1.170657425,17,female
40,70,1,40,0,1.190409923,17,female
41,1,1,2,1,43.7243966,19,male
41,2,0,1,1,1.491982208,19,male
41,3,0,1,1,2.761476683,19,male
41,4,0,5,1,0.918521325,19,male
41,5,0,20,1,3.797820506,19,male
41,6,1,40,1,1.631991475,19,male
41,7,0,2,0,1.901977997,19,male
41,8,0,40,1,2.082344737,19,male
41,9,0,10,1,1.846334178,19,male
41,10,0,1,1,0.537756117,19,male
41,11,1,80,1,1.010197437,19,male
41,12,0,40,0,2.636214019,19,male
41,13,0,5,1,2.810320298,19,male
41,14,0,5,1,1.298274366,19,male
41,15,1,5,1,1.593593736,19,male
41,16,1,40,0,3.101819516,19,male
41,17,1,1,1,0.868255001,19,male
41,18,1,10,1,0.588322499,19,male
41,19,1,20,1,1.282220065,19,male
41,20,0,10,1,1.064378097,19,male
41,21,1,20,1,1.478260148,19,male
41,22,1,5,0,1.944328409,19,male
41,23,0,5,1,2.397159413,19,male
41,24,0,80,0,3.26196888,19,male
41,25,0,1,1,1.588567918,19,male
41,26,0,40,1,2.466656604,19,male
41,27,1,1,1,1.248428243,19,male
41,28,1,2,1,1.129861035,19,male
41,29,1,80,1,2.395717384,19,male
41,30,0,5,1,0.842494706,19,male
41,31,1,20,1,1.304547808,19,male
41,32,1,80,1,1.105728418,19,male
41,33,0,80,1,3.02027624,19,male
41,34,0,40,1,1.479681649,19,male
41,35,1,2,1,1.22792047,19,male
41,36,1,40,1,2.160318411,19,male
41,37,0,1,1,1.210463988,19,male
41,38,0,80,0,3.277827267,19,male
41,39,0,80,1,2.08194627,19,male
41,40,0,2,1,1.625397146,19,male
41,41,1,10,1,1.360610017,19,male
41,42,1,20,1,1.401606245,19,male
41,43,1,40,1,1.630004875,19,male
41,44,0,20,1,1.368134404,19,male
41,45,0,20,1,1.567791481,19,male
41,46,1,1,1,2.011998388,19,male
41,47,1,40,1,1.308354074,19,male
41,48,1,10,1,1.168210475,19,male
41,49,1,5,1,1.312826868,19,male
41,50,1,80,0,1.086069499,19,male
41,51,1,1,1,0.900342772,19,male
41,52,0,2,1,0.657867386,19,male
41,53,0,80,1,2.012959539,19,male
41,54,1,80,1,1.250088221,19,male
41,55,1,10,1,1.090206916,19,male
41,56,0,2,1,0.872172355,19,male
41,57,1,5,0,1.400465482,19,male
41,58,0,20,0,1.590128279,19,male
41,59,0,10,1,2.189729812,19,male
41,60,0,10,0,0.608237704,19,male
41,61,0,40,1,1.004590824,19,male
41,62,1,1,1,0.906443243,19,male
41,63,1,2,0,0.937976481,19,male
41,64,1,5,0,0.866434127,19,male
41,65,1,20,1,0.995968841,19,male
41,66,1,10,1,1.066451937,19,male
41,67,0,20,1,1.152467704,19,male
41,68,0,10,1,0.946448436,19,male
41,69,0,2,1,1.630774037,19,male
41,70,1,2,1,1.16071869,19,male
42,1,1,80,0,64.40023002,19,female
42,2,1,10,0,2.007867914,19,female
42,3,0,80,1,1.59306637,19,female
42,4,1,5,0,1.676461914,19,female
42,5,0,20,0,2.131363739,19,female
42,6,0,40,0,1.709988091,19,female
42,7,1,5,0,1.044113026,19,female
42,8,0,5,0,1.922157941,19,female
42,9,1,1,0,2.159934736,19,female
42,10,1,80,1,1.454422457,19,female
42,11,0,10,0,2.058327736,19,female
42,12,0,2,0,1.813799942,19,female
42,13,0,10,0,2.050213799,19,female
42,14,1,1,0,1.198228331,19,female
42,15,0,10,0,1.74157627,19,female
42,16,0,2,0,1.344443421,19,female
42,17,1,40,0,2.050124445,19,female
42,18,0,5,0,3.762278749,19,female
42,19,1,40,0,4.986425856,19,female
42,20,1,40,1,2.485956298,19,female
42,21,0,2,0,1.599553234,19,female
42,22,1,2,0,1.198475561,19,female
42,23,0,2,0,3.090040586,19,female
42,24,1,10,0,2.240016663,19,female
42,25,0,10,0,1.617948528,19,female
42,26,0,1,0,7.225966471,19,female
42,27,0,5,0,3.866458578,19,female
42,28,0,5,0,6.620368009,19,female
42,29,0,1,0,6.90374876,19,female
42,30,1,10,1,2.860272075,19,female
42,31,1,80,1,4.045655577,19,female
42,32,0,40,0,3.512334519,19,female
42,33,1,80,1,1.662191358,19,female
42,34,1,1,0,1.167567494,19,female
42,35,0,80,1,1.127975561,19,female
42,36,0,40,0,1.500163462,19,female
42,37,0,1,0,1.770392988,19,female
42,38,1,5,0,1.441967643,19,female
42,39,0,20,0,1.935894793,19,female
42,40,1,1,0,1.762561902,19,female
42,41,1,20,0,1.161638183,19,female
42,42,1,40,0,2.02179766,19,female
42,43,0,2,0,1.168251227,19,female
42,44,1,2,0,1.24028744,19,female
42,45,0,10,0,1.493705578,19,female
42,46,0,80,1,1.39187278,19,female
42,47,1,10,0,1.677593319,19,female
42,48,1,40,0,1.929895448,19,female
42,49,1,20,0,1.822012591,19,female
42,50,1,2,0,2.044516021,19,female
42,51,0,40,0,2.112331802,19,female
42,52,1,20,0,2.714501637,19,female
42,53,1,2,0,1.312200489,19,female
42,54,1,5,0,1.454039687,19,female
42,55,0,40,0,1.856211332,19,female
42,56,1,80,1,1.484152027,19,female
42,57,0,20,0,1.336422762,19,female
42,58,0,80,0,2.310124838,19,female
42,59,1,5,0,1.616374583,19,female
42,60,0,1,0,1.224272684,19,female
42,61,1,20,0,1.502472458,19,female
42,62,1,2,0,1.474327398,19,female
42,63,0,5,0,1.80422677,19,female
42,64,0,1,0,1.810565718,19,female
42,65,1,10,0,1.827912319,19,female
42,66,1,1,0,1.338052854,19,female
42,67,1,20,0,1.098204634,19,female
42,68,0,20,0,1.167111068,19,female
42,69,0,20,0,1.356655533,19,female
42,70,0,80,1,2.078792041,19,female
43,1,0,20,1,42.74009953,18,male
43,2,0,2,0,2.056430489,18,male
43,3,1,40,1,3.062805963,18,male
43,4,0,10,1,2.322271142,18,male
43,5,0,20,0,1.379664593,18,male
43,6,1,40,1,2.068047617,18,male
43,7,1,1,1,2.209559588,18,male
43,8,0,5,1,1.314367607,18,male
43,9,0,5,1,2.219673106,18,male
43,10,1,1,1,1.19607691,18,male
43,11,1,80,1,2.641887949,18,male
43,12,1,1,1,1.205409493,18,male
43,13,0,80,1,1.406185598,18,male
43,14,0,10,0,2.617735711,18,male
43,15,1,10,0,1.062050989,18,male
43,16,1,5,0,1.351786084,18,male
43,17,1,10,1,1.524340756,18,male
43,18,0,20,0,0.921992215,18,male
43,19,1,2,1,1.491949908,18,male
43,20,1,10,0,1.697793488,18,male
43,21,0,20,0,0.758388261,18,male
43,22,0,80,1,1.911904054,18,male
43,23,0,80,1,1.554181414,18,male
43,24,0,40,1,1.550216667,18,male
43,25,0,2,1,0.884364543,18,male
43,26,1,80,1,1.670422119,18,male
43,27,0,40,0,1.377627883,18,male
43,28,0,80,0,1.25430352,18,male
43,29,1,5,1,1.800363148,18,male
43,30,1,2,1,1.550843648,18,male
43,31,0,5,0,0.717570739,18,male
43,32,0,1,1,1.057636154,18,male
43,33,1,5,1,0.9435517,18,male
43,34,1,80,1,1.39576508,18,male
43,35,0,2,1,1.212037631,18,male
43,36,1,80,1,1.288411701,18,male
43,37,0,2,1,1.175892438,18,male
43,38,0,5,1,2.21054187,18,male
43,39,0,20,0,1.595895487,18,male
43,40,0,40,0,1.110510928,18,male
43,41,1,80,0,1.754418683,18,male
43,42,0,1,1,1.023944553,18,male
43,43,0,10,1,2.172005271,18,male
43,44,1,1,1,1.44371154,18,male
43,45,1,2,1,3.964298253,18,male
43,46,1,40,0,1.409725012,18,male
43,47,0,40,0,1.402517286,18,male
43,48,1,40,0,1.39019137,18,male
43,49,1,5,1,1.670248846,18,male
43,50,0,80,0,1.757811087,18,male
43,51,1,5,1,1.186634145,18,male
43,52,1,20,0,1.428655219,18,male
43,53,1,2,1,1.514142413,18,male
43,54,0,10,1,1.320514264,18,male
43,55,0,1,1,0.866262967,18,male
43,56,1,40,0,1.188503016,18,male
43,57,1,2,1,1.068197646,18,male
43,58,0,2,1,0.600252664,18,male
43,59,1,1,1,0.808068053,18,male
43,60,0,40,0,2.196906144,18,male
43,61,1,20,0,1.578548584,18,male
43,62,1,20,0,15.97893196,18,male
43,63,1,10,1,11.21245904,18,male
43,64,1,20,0,1.106194503,18,male
43,65,0,1,1,1.14175407,18,male
43,66,1,20,0,11.57401874,18,male
43,67,0,10,1,1.746682686,18,male
43,68,0,1,1,0.648028267,18,male
43,69,1,10,1,1.386669162,18,male
43,70,0,5,1,1.152230133,18,male
44,1,0,20,1,38.80769615,18,female
44,2,1,5,0,5.164507146,18,female
44,3,0,80,1,0.775990847,18,female
44,4,0,1,0,0.627990503,18,female
44,5,1,20,1,1.227636109,18,female
44,6,0,1,1,2.091445183,18,female
44,7,0,5,1,2.878478701,18,female
44,8,1,5,1,1.102137082,18,female
44,9,0,40,0,0.410259321,18,female
44,10,1,80,1,1.121893202,18,female
44,11,1,10,1,3.546204223,18,female
44,12,1,10,1,1.263774963,18,female
44,13,0,20,0,0.968325789,18,female
44,14,1,1,1,1.254248278,18,female
44,15,1,2,1,1.057676001,18,female
44,16,1,2,1,0.904175603,18,female
44,17,0,40,1,1.003884149,18,female
44,18,0,5,1,1.184146745,18,female
44,19,1,20,1,1.385736387,18,female
44,20,0,2,1,0.881587348,18,female
44,21,1,1,0,0.623634533,18,female
44,22,0,1,0,0.843750783,18,female
44,23,0,10,0,0.582376887,18,female
44,24,1,40,1,0.67011542,18,female
44,25,1,1,1,1.050008226,18,female
44,26,1,10,0,0.693881568,18,female
44,27,1,80,0,0.701881399,18,female
44,28,0,80,1,1.536156815,18,female
44,29,0,2,0,2.469148835,18,female
44,30,0,10,1,1.428074423,18,female
44,31,1,10,1,0.810106273,18,female
44,32,1,20,1,1.234353902,18,female
44,33,0,10,1,0.550300888,18,female
44,34,1,40,1,0.719823286,18,female
44,35,0,40,1,0.713900918,18,female
44,36,0,2,0,1.950371224,18,female
44,37,0,80,1,0.911881716,18,female
44,38,0,2,1,1.344211284,18,female
44,39,1,40,1,0.37845108,18,female
44,40,1,5,1,5.230141622,18,female
44,41,0,10,0,0.386160513,18,female
44,42,1,1,1,1.054189112,18,female
44,43,1,80,0,0.396649858,18,female
44,44,0,20,1,1.314382399,18,female
